id,gesture_name,timestamp,ax,ay,az,gx,gy,gz,p0,p1,p2,p3

1,2,206434,0.92,0.74,0.91,-0.23,-2.38,2.28,3859,3709,4095,4095
1,2,206446,0.89,0.73,0.91,-2.03,-4.92,4.78,3867,3712,4095,4095
1,2,206458,0.95,0.74,0.91,-1.09,-5.62,3.35,3877,3709,4095,4095
1,2,206470,0.96,0.72,0.88,-1.13,-5.5,1.04,3873,3710,4095,4095
1,2,206482,0.94,0.72,0.9,-0.95,-4.49,-0.51,3861,3710,4095,4095
1,2,206494,0.92,0.72,0.9,-0.48,-6.29,-0.29,3863,3709,4095,4095
1,2,206506,0.92,0.72,0.9,-0.45,-7.04,-0.24,3843,3708,4095,4095
1,2,206518,0.93,0.73,0.9,0.7,-7.08,-1.55,3894,3717,4095,4095
1,2,206530,0.93,0.74,0.91,0.1,-5.16,-2.38,3870,3721,4095,4095
1,2,206542,0.92,0.74,0.9,-0.75,-5.22,-2.04,3873,3723,4095,4095
1,2,206554,0.91,0.74,0.9,-2.08,-6.4,-0.35,3840,3713,4095,4095
1,2,206566,0.94,0.74,0.89,-3.1,-6.96,-0.12,3856,3707,4095,4095
1,2,206578,0.95,0.73,0.88,-3.48,-6.08,-1.95,3883,3734,4095,4095
1,2,206590,0.94,0.73,0.88,-3.35,-6.12,-2.96,3899,3701,4095,4095
1,2,206602,0.95,0.73,0.87,-3.13,-4.43,-3.16,3909,3729,4095,4095
1,2,206614,0.96,0.72,0.88,-2,-3.25,-3.14,3878,3719,4095,4095
1,2,206626,0.95,0.73,0.87,-0.71,-1.57,-2.15,3888,3718,4095,4095
1,2,206638,0.95,0.74,0.88,0.65,0.26,-1.29,3904,3731,4095,4095
1,2,206650,0.93,0.74,0.88,0.3,2.46,0.71,3889,3718,4095,4095
1,2,206662,0.91,0.73,0.89,0.33,2.12,2.8,3846,3711,4095,4095
1,2,206674,0.9,0.73,0.89,0.39,2.15,5.3,3856,3713,4095,4095
1,2,206686,0.92,0.74,0.89,0.32,2.24,5.87,3855,3694,4095,4095
1,2,206698,0.94,0.74,0.9,-0.45,3.89,3.96,3859,3703,4095,4095
1,2,206710,0.93,0.72,0.9,-0.78,2.93,2.98,3881,3710,4095,4095
1,2,206722,0.93,0.73,0.89,-0.75,0.92,0.57,3877,3710,4095,4095
1,2,206734,0.94,0.72,0.9,-1.09,-0.61,-1.25,3867,3711,4095,4095
1,2,206746,0.93,0.73,0.89,-0.98,-0.82,-2.3,3879,3714,4095,4095
1,2,206758,0.92,0.73,0.91,-1.1,-0.11,-1.57,3869,3709,4095,4095
1,2,206770,0.91,0.74,0.9,-0.54,0.61,-0.18,3882,3695,4095,4095
1,2,206782,0.91,0.74,0.9,-0.86,0.66,2.29,3831,3708,4095,4095
1,2,206794,0.91,0.73,0.9,-0.81,-0.12,3.23,3845,3716,4095,4095
1,2,206806,0.94,0.74,0.9,-1.88,-1.74,1.96,3871,3702,4095,4095
1,2,206818,0.92,0.73,0.9,-2.8,-2.78,0.26,3865,3712,4095,4095
1,2,206830,0.91,0.73,0.9,-3.19,-4.7,-0.04,3875,3729,4095,4095
1,2,206842,0.92,0.72,0.89,-3.59,-5.28,-0.91,3857,3728,4095,4095
1,2,206854,0.94,0.72,0.88,-2.95,-4.92,-2.97,3869,3716,4095,4095
1,2,206866,0.94,0.72,0.89,-1.53,-3.47,-5.37,3872,3710,4095,4095
1,2,206878,0.94,0.73,0.88,-1.16,-2.11,-5.74,3884,3711,4095,4095
1,2,206890,0.92,0.74,0.88,-1.16,-4.56,-3.51,3863,3711,4095,4095
1,2,206902,0.93,0.76,0.89,-1.38,-4.78,-1.57,3888,3707,4095,4095
1,2,206914,0.89,0.74,0.9,-1.61,-6.06,3.21,3841,3698,4095,4095
1,2,206926,0.96,0.75,0.84,-1.97,-5.62,3.87,3835,3701,4095,4095
1,2,206938,0.9,0.72,0.81,-2.09,-7.18,3.04,3858,3699,4095,4095
1,2,206950,0.95,0.77,0.86,1.92,-11.1,4.23,3856,3686,4095,4095
1,2,206962,0.96,0.73,0.87,-2.19,-4.03,2.45,3824,3701,4095,4095
1,2,206974,0.9,0.71,0.87,-1.09,-3.05,1.24,3879,3696,4095,4095
1,2,206986,0.94,0.72,0.88,-0.19,-2.31,0.86,3837,3697,4095,4095
1,2,206998,0.91,0.75,0.95,-1.97,2.18,0.97,3877,3699,4095,4095
1,2,207010,0.96,0.74,0.92,-0.29,1.34,-0.44,3851,3698,4095,4095
1,2,207022,0.95,0.74,0.87,-1.47,0.37,-0.38,3856,3696,4095,4095
1,2,207034,0.93,0.74,0.9,-0.19,1.4,-1.96,3856,3701,4095,4095
1,2,207046,0.92,0.73,0.88,0.44,1.47,0.08,3856,3699,4095,4095
1,2,207058,0.94,0.74,0.9,-0.06,0.6,-0.15,3858,3703,4095,4095
1,2,207070,0.95,0.75,0.89,-1.13,-2.17,0.78,3838,3697,4095,4095
1,2,207082,0.92,0.73,0.87,-3.15,-1.66,-1.08,3856,3700,4095,4095
1,2,207094,0.94,0.73,0.86,-2.8,-4.01,-2.71,3881,3697,4095,4095
1,2,207106,0.95,0.73,0.86,-3.03,-4.99,-4.27,3853,3695,4095,4095
1,2,207118,0.93,0.72,0.86,-0.81,-4.14,-4.27,3855,3693,4095,4095
1,2,207130,0.93,0.73,0.87,0.94,-0.92,-1,3825,3693,4095,4095
1,2,207142,0.95,0.75,0.87,2.82,0.4,1.26,3844,3696,4095,4095
1,2,207154,0.94,0.74,0.87,2.96,1.79,1.81,3838,3701,4095,4095
1,2,207166,0.92,0.73,0.89,4.35,-0.72,3.85,3871,3694,4095,4095
1,2,207178,0.92,0.74,0.9,3.58,-0.67,2.78,3840,3698,4095,4095
1,2,207190,0.92,0.73,0.89,1.34,-3.31,1.49,3856,3696,4095,4095
1,2,207202,0.93,0.73,0.89,0.61,-7.48,-1.45,3843,3698,4095,4095
1,2,207214,0.9,0.73,0.88,-0.69,-9.22,-2.16,3857,3696,4095,4095
1,2,207226,0.88,0.73,0.89,-0.42,-7.3,-1.4,3835,3695,4095,4095
1,2,207238,0.9,0.73,0.88,1.2,-6.4,-1.14,3843,3696,4095,4095
1,2,207250,0.94,0.73,0.87,1.45,-7.22,-2.16,3842,3700,4095,4095
1,2,207262,0.94,0.74,0.87,0.68,-8.17,-3.23,3840,3696,4095,4095
1,2,207274,0.95,0.74,0.87,0.29,-9.1,-3.9,3854,3701,4095,4095
1,2,207286,0.95,0.75,0.87,0.23,-10.72,-3.78,3847,3701,4095,4095
1,2,207298,0.92,0.72,0.83,-0.69,-7.85,1.58,3856,3696,4095,4095
1,2,207310,0.95,0.75,0.79,-0.78,-11.63,1.16,3856,3703,4095,4095
1,2,207322,0.88,0.73,0.83,-1.74,-7.68,2.42,3826,3700,4095,4095
1,2,207334,0.89,0.71,0.87,-0.28,-5.19,6.28,3890,3699,4095,4095
1,2,207346,0.88,0.73,0.93,-1.99,-1.43,7.3,3853,3696,4095,4095
1,2,207358,0.97,0.74,0.91,-1.5,-2.17,1.04,3857,3699,4095,4095
1,2,207370,0.94,0.74,0.86,-3.53,-4.27,-4.36,3853,3696,4095,4095
1,2,207382,0.92,0.74,0.82,-1.87,-8.49,-8.88,3855,3694,4095,4095
1,2,207394,0.95,0.75,0.83,-2.84,-6.24,-7.81,3856,3703,4095,4095
1,2,207406,0.92,0.77,0.83,-1.97,-5.14,-6.87,3866,3703,4095,4095
1,2,207418,0.95,0.77,0.84,-1.42,-2.69,-0.48,3888,3705,4095,4095
1,2,207430,0.98,0.75,0.83,-0.48,-0.98,4.42,3856,3699,4095,4095
1,2,207442,0.98,0.75,0.85,0.29,0.55,7.36,3856,3707,4095,4095
1,2,207454,0.95,0.73,0.85,0.59,0.12,9.64,3813,3700,4095,4095
1,2,207466,0.92,0.73,0.85,0.13,-0.98,8.52,3863,3698,4095,4095
1,2,207478,0.91,0.73,0.84,-0.98,-1.28,7.3,3859,3696,4095,4095
1,2,207490,0.93,0.71,0.86,-2.14,-2.7,4.33,3861,3700,4095,4095
1,2,207502,0.91,0.73,0.85,-1.94,-3.65,-0.42,3849,3697,4095,4095
1,2,207514,0.92,0.72,0.85,-3.35,-3.72,-3.2,3837,3698,4095,4095
1,2,207526,0.92,0.72,0.85,-1.59,-4.53,-4.71,3862,3700,4095,4095
1,2,207538,0.95,0.73,0.85,-1.13,-4.29,-5.02,3851,3696,4095,4095
1,2,207550,0.95,0.74,0.85,-0.72,-5.37,-4.12,3863,3695,4095,4095
1,2,207562,0.94,0.76,0.87,-0.09,-7.22,-1.28,3839,3695,4095,4095
1,2,207574,0.93,0.75,0.84,-1.35,-7.79,1.61,3847,3694,4095,4095
1,2,207586,0.93,0.75,0.85,-2.11,-11.82,4.68,3837,3698,4095,4095
1,2,207598,0.9,0.74,0.82,-1.36,-12.2,6.26,3878,3696,4095,4095
1,2,207610,0.91,0.73,0.84,-1.64,-10.08,6.6,3849,3698,4095,4095
1,2,207622,0.93,0.71,0.82,-2.11,-9.04,3.58,3842,3699,4095,4095
1,2,207634,0.91,0.73,0.82,-1.51,-8.46,-0.53,3844,3697,4095,4095
1,2,207646,0.92,0.73,0.81,-1.65,-9.34,-1.98,3846,3696,4095,4095
1,2,207658,0.93,0.73,0.82,-1.8,-9.22,-2.47,3883,3697,4095,4095
1,2,207670,0.92,0.74,0.83,-1.61,-7.37,-0.59,3856,3700,4095,4095
1,2,207682,0.91,0.74,0.82,-2.57,-3.25,2.74,3873,3699,4095,4095
1,2,207694,0.94,0.74,0.82,-1.65,-1.19,3.21,3858,3700,4095,4095
1,2,207706,0.91,0.73,0.81,-3.73,1.63,2.68,3856,3695,4095,4095
1,2,207718,0.92,0.72,0.81,-3.58,0.26,0.58,3856,3696,4095,4095
1,2,207730,0.93,0.73,0.79,-3.88,0.61,-2.65,3875,3703,4095,4095
1,2,207742,0.96,0.74,0.81,-2.55,0.89,-7.64,3874,3712,4095,4095
1,2,207754,0.94,0.73,0.8,-2.9,3.42,-8.96,3857,3692,4095,4095
1,2,207766,0.94,0.74,0.82,-2.16,3.18,-5.38,3853,3703,4095,4095
1,2,207778,0.95,0.75,0.82,-1.68,3.45,-1.06,3846,3701,4095,4095
1,2,207790,0.94,0.76,0.83,-0.81,4.64,2.78,3857,3696,4095,4095
1,2,207802,0.93,0.74,0.84,-0.11,5.27,5.82,3857,3699,4095,4095
1,2,207814,0.91,0.73,0.83,-0.19,4.87,7.07,3855,3684,4095,4095
1,2,207826,0.92,0.73,0.84,-0.29,3.13,5.1,3851,3695,4095,4095
1,2,207838,0.92,0.73,0.83,-1,1.44,1.15,3855,3698,4095,4095
1,2,207850,0.91,0.73,0.83,-1.26,0.14,-1.45,3852,3697,4095,4095
1,2,207862,0.92,0.73,0.83,-0.98,-0.73,-3.35,3863,3694,4095,4095
1,2,207874,0.91,0.74,0.83,-1.33,-0.21,-3.9,3838,3702,4095,4095
1,2,207886,0.92,0.74,0.83,-1.07,1.24,-2.3,3842,3696,4095,4095
1,2,207898,0.95,0.74,0.83,-1.1,2.17,-0.55,3869,3696,4095,4095
1,2,207910,0.92,0.73,0.83,-0.93,2.23,0.87,3835,3699,4095,4095
1,2,207922,0.92,0.74,0.82,-1.18,3.73,2.86,3853,3698,4095,4095
1,2,207934,0.94,0.73,0.82,-1,5.18,1.68,3869,3697,4095,4095
1,2,207946,0.91,0.73,0.83,-1.39,5.83,1.56,3855,3696,4095,4095
1,2,207958,0.91,0.73,0.83,-0.64,6.49,-0.07,3856,3697,4095,4095
1,2,207970,0.93,0.74,0.83,-1.38,5.69,-2.53,3877,3699,4095,4095
1,2,207982,0.95,0.74,0.84,-3.35,5.01,-5.37,3821,3696,4095,4095
1,2,207994,0.96,0.75,0.82,-2.98,2.41,-7.34,3850,3702,4095,4095
1,2,208006,0.95,0.76,0.84,-3.41,2.24,-6.9,3831,3696,4095,4095
1,2,208018,0.94,0.75,0.84,-3.18,1.95,-1.71,3872,3697,4095,4095
1,2,208030,0.96,0.75,0.86,-2.64,2.28,2.72,3854,3696,4095,4095
1,2,208042,0.94,0.75,0.84,-2.19,1.85,5.61,3879,3728,4095,4095
1,2,208054,0.89,0.74,0.87,-1.58,1.45,8.77,3904,3711,4095,4095
1,2,208066,0.9,0.73,0.85,-1.04,0.49,9.49,3872,3718,4095,4095
1,2,208078,0.9,0.72,0.84,-1.87,0.64,6.43,3875,3705,4095,4095
1,2,208090,0.9,0.71,0.85,-1.21,-1.77,1.9,3865,3708,4095,4095
1,2,208102,0.9,0.73,0.84,-1.64,-3.91,-2.35,3877,3711,4095,4095
1,2,208114,0.92,0.73,0.85,-2.05,-5.95,-5.83,3856,3709,4095,4095
1,2,208126,0.93,0.73,0.85,-3.21,-6.99,-6.04,3839,3707,4095,4095
1,2,208138,0.93,0.74,0.84,-2.32,-8.92,-3.35,3873,3703,4095,4095
1,2,208150,0.93,0.75,0.82,-2.61,-6.64,-1.02,3872,3702,4095,4095
1,2,208162,0.92,0.74,0.83,-1.84,-3.56,1.58,3854,3708,4095,4095
1,2,208174,0.94,0.72,0.82,-0.46,-1.31,2.51,3868,3712,4095,4095
1,2,208186,0.94,0.73,0.81,0.35,1.18,1.79,3888,3707,4095,4095
1,2,208198,0.92,0.73,0.82,-0.22,3.37,1.09,3846,3711,4095,4095
1,2,208210,0.93,0.74,0.83,-0.26,3.04,0,3859,3709,4095,4095
1,2,208222,0.94,0.75,0.83,-2,2.73,-2.9,3874,3706,4095,4095
1,2,208234,0.94,0.75,0.84,-2.74,1.37,-4.58,3868,3701,4095,4095
1,2,208246,0.93,0.75,0.83,-2.9,-0.67,-4.1,3858,3706,4095,4095
1,2,208258,0.93,0.75,0.84,-3.99,0.6,-3.06,3886,3701,4095,4095
1,2,208270,0.94,0.74,0.83,-1.38,1.4,-1.98,3885,3700,4095,4095
1,2,208282,0.94,0.74,0.84,-0.66,2.82,0.08,3814,3705,4095,4095
1,2,208294,0.92,0.75,0.86,-0.51,1.24,3.03,3876,3701,4095,4095
1,2,208306,0.91,0.75,0.85,-0.95,-2,4.16,3777,3696,4095,4095
1,2,208318,0.93,0.74,0.84,-2.4,-5.11,3.27,3865,3699,4095,4095
1,2,208330,0.93,0.73,0.84,-1.45,-8.12,0.42,3866,3701,4095,4095
1,2,208342,0.91,0.74,0.83,-2.13,-7.92,-1.66,3858,3699,4095,4095
1,2,208354,0.88,0.72,0.84,-2.89,-8.34,-0.32,3824,3699,4095,4095
1,2,208366,0.91,0.76,0.84,-1.85,-8.98,-0.12,3888,3699,4095,4095
1,2,208378,0.93,0.75,0.82,-2.71,-7.01,-0.71,3869,3697,4095,4095
1,2,208390,0.97,0.8,0.89,3.55,-11.83,-2.03,3866,3697,4095,4095
1,2,208402,0.93,0.69,0.79,-5.71,-4.76,-1.38,3871,3703,4095,4095
1,2,208414,0.96,0.74,0.8,-2.17,-5.69,-2.01,3850,3699,4095,4095
1,2,208426,0.95,0.73,0.8,-2.14,-1.19,-1.66,3870,3699,4095,4095
1,2,208438,0.94,0.73,0.81,-0.2,2.7,-0.19,3857,3705,4095,4095
2,2,10137,-0.03,0,0.94,-1.04,0.46,0.28,4004,3682,4095,4095
2,2,10149,0,0.01,0.96,-0.27,1.31,0.45,4003,3683,4095,4095
2,2,10161,0.02,0.02,0.94,-0.72,0.3,-0.11,4007,3685,4095,4095
2,2,10173,-0.01,0.01,0.93,-1.01,-0.89,-0.6,4010,3686,4095,4095
2,2,10185,0,0,0.96,-0.6,-1.3,-1.18,3995,3684,4095,4095
2,2,10197,0.01,0.01,0.94,-0.02,-0.78,-1.94,4009,3678,4095,4095
2,2,10209,-0.01,0.02,0.93,-0.2,-1.42,-1.41,3998,3687,4095,4095
2,2,10221,-0.01,0.02,0.94,-1.04,-1.27,-0.34,3987,3689,4095,4095
2,2,10233,0,0.01,0.95,-1.23,-0.67,0.71,3999,3680,4095,4095
2,2,10245,0.01,0.01,0.94,-1.46,-0.81,1.19,4022,3683,4095,4095
2,2,10257,0,0.01,0.93,-1.21,-0.49,0.5,4010,3683,4095,4095
2,2,10269,0.02,0.01,0.94,-1.18,-0.26,-0.34,4007,3684,4095,4095
2,2,10281,0.02,0.02,0.94,-0.65,0.33,-1.73,4035,3682,4095,4095
2,2,10293,0.01,0.02,0.93,-1.04,0.32,-1.82,3984,3687,4095,4095
2,2,10305,0.02,0.03,0.92,-1.14,-0.99,-2.05,4016,3683,4095,4095
2,2,10317,0,0.01,0.93,-1.72,-1.42,-0.19,3989,3685,4095,4095
2,2,10329,0.01,0.02,0.95,-0.62,0.27,1.14,4011,3685,4095,4095
2,2,10341,0.01,0.02,0.94,-0.56,0.5,2.67,4035,3691,4095,4095
2,2,10353,0.01,0.01,0.94,-1.35,0.14,2.62,4015,3681,4095,4095
2,2,10365,0.02,0.02,0.95,-1.52,0.82,1.96,4010,3688,4095,4095
2,2,10377,0.01,0,0.94,-1.55,-0.73,0.73,3998,3689,4095,4095
2,2,10389,0,0,0.95,-0.62,-1.53,-0.2,4007,3687,4095,4095
2,2,10401,0,0,0.96,0.25,-2.14,-0.66,4014,3685,4095,4095
2,2,10413,0,0.01,0.95,0.71,-3.85,-0.16,3987,3682,4095,4095
2,2,10425,-0.01,0.02,0.95,0.53,-4.7,0.44,4016,3681,4095,4095
2,2,10437,-0.01,0.01,0.94,-0.16,-5.45,1.12,4009,3685,4095,4095
2,2,10449,0.02,0.01,0.92,-0.13,-5.53,1.57,4010,3684,4095,4095
2,2,10461,0.04,0.02,0.92,-0.16,-4.17,0.47,3986,3683,4095,4095
2,2,10473,0.03,0.02,0.92,-0.33,-3.16,0.93,4017,3682,4095,4095
2,2,10485,0.03,0.01,0.92,-0.25,-1.74,1.58,4002,3689,4095,4095
2,2,10497,0.05,0.03,0.92,-1.09,0.14,2.19,4000,3689,4095,4095
2,2,10509,0,-0.02,0.92,-0.91,1.36,2.24,4010,3685,4095,4095
2,2,10521,-0.01,-0.01,0.92,-0.94,2.18,2.9,4006,3685,4095,4095
2,2,10533,-0.01,-0.01,0.94,-0.13,3.75,2.62,4032,3684,4095,4095
2,2,10545,0.02,-0.01,0.94,0.32,5.07,1.28,3991,3678,4095,4095
2,2,10557,0.03,0,0.93,0.57,4.87,0.25,4016,3690,4095,4095
2,2,10569,0.02,0,0.94,-0.3,4.41,-2.14,4013,3686,4095,4095
2,2,10581,0,0,0.93,-0.95,2.75,-3.26,4013,3679,4095,4095
2,2,10593,0.01,0,0.94,-0.77,1.92,-4.34,4001,3685,4095,4095
2,2,10605,-0.03,-0.02,0.92,-0.6,0.14,-4.86,4011,3681,4095,4095
2,2,10617,-0.02,0,0.95,0.24,-0.87,-4.16,3998,3682,4095,4095
2,2,10629,-0.01,0,0.94,1.37,-0.17,-5.5,4003,3690,4095,4095
2,2,10641,0.01,0.02,0.94,1.72,0,-5.7,4029,3685,4095,4095
2,2,10653,0.02,0.03,0.95,0.85,0.27,-5.99,3999,3687,4095,4095
2,2,10665,0.04,0.04,0.98,0.86,-0.66,-5.26,4003,3690,4095,4095
2,2,10677,0.02,0.03,0.96,0.04,-1.71,-4.59,3999,3691,4095,4095
2,2,10689,-0.01,0.04,0.95,-0.95,-3.3,-2.08,3985,3683,4095,4095
2,2,10701,0,0.03,0.94,-1.64,-5.07,1.28,3999,3686,4095,4095
2,2,10713,0,0.03,0.94,-2.36,-5.25,3.28,3995,3680,4095,4095
2,2,10725,-0.01,0.01,0.94,-1.9,-5.19,4.27,4012,3686,4095,4095
2,2,10737,0.01,0,0.94,-0.8,-4.34,4.93,4019,3680,4095,4095
2,2,10749,0.03,0,0.93,0.06,-4.29,4.16,4007,3683,4095,4095
2,2,10761,0.03,0,0.94,0.27,-4.86,1.51,4005,3682,4095,4095
2,2,10773,0.03,0,0.94,-0.2,-6.03,0.35,3978,3682,4095,4095
2,2,10785,0.01,0,0.93,-0.19,-6.8,-0.56,4033,3687,4095,4095
2,2,10797,-0.01,0,0.93,-0.51,-7.51,-1.5,4007,3683,4095,4095
2,2,10809,-0.02,0,0.93,-0.4,-7.51,-1.06,4011,3681,4095,4095
2,2,10821,-0.02,0,0.93,-0.52,-6.47,-0.8,3982,3685,4095,4095
2,2,10833,-0.03,-0.01,0.94,0.42,-5.21,-1.36,4023,3687,4095,4095
2,2,10845,-0.01,0.02,0.94,0.16,-5.74,-0.71,4002,3684,4095,4095
2,2,10857,-0.01,0.02,0.93,-0.31,-6.22,-0.86,4003,3680,4095,4095
2,2,10869,0.01,0.02,0.92,-1.3,-8.66,0.01,4002,3687,4095,4095
2,2,10881,0.03,0.02,0.9,-1.23,-10.52,-1.56,4010,3683,4095,4095
2,2,10893,0.03,0.01,0.9,-0.48,-10.93,-1.41,3980,3686,4095,4095
2,2,10905,0.06,0.06,0.92,0.21,-9.13,-0.39,4001,3679,4095,4095
2,2,10917,-0.01,0.01,0.92,-0.04,-7.27,1.2,4026,3681,4095,4095
2,2,10929,-0.03,0.03,0.9,-1.88,-5.13,4.82,4006,3684,4095,4095
2,2,10941,-0.01,0.01,0.91,-2.74,-2.9,8.09,4007,3689,4095,4095
2,2,10953,0.02,0.01,0.9,-2.8,-1.38,9.22,3997,3680,4095,4095
2,2,10965,0.02,-0.01,0.91,-2.3,-0.87,9.15,4010,3689,4095,4095
2,2,10977,0.01,0,0.9,-1.47,0.11,7.11,4007,3681,4095,4095
2,2,10989,0.01,-0.02,0.9,-0.65,-0.75,5.96,4016,3681,4095,4095
2,2,11001,0.03,-0.01,0.9,0.19,-1.34,3.99,4016,3681,4095,4095
2,2,11013,0.04,0.02,0.9,0.41,-2.09,1.9,4038,3713,4095,4095
2,2,11025,0.01,-0.01,0.93,-0.36,-3.7,1.06,4022,3680,4095,4095
2,2,11037,-0.01,0,0.91,-1.82,-3.79,2.77,3967,3691,4095,4095
2,2,11049,-0.01,0.01,0.92,-1.94,-3.82,3.69,3981,3695,4095,4095
2,2,11061,-0.02,-0.01,0.91,-2.52,-4.6,5.17,3991,3683,4095,4095
2,2,11073,-0.01,-0.02,0.9,-2.17,-5.31,4.99,3999,3686,4095,4095
2,2,11085,0.01,-0.02,0.91,-1.43,-6.38,3.52,3999,3686,4095,4095
2,2,11097,0.02,-0.01,0.89,-0.4,-7.02,0.18,3979,3690,4095,4095
2,2,11109,0.01,0,0.89,-0.23,-8.41,-3,4016,3695,4095,4095
2,2,11121,0.02,0.01,0.89,0.93,-8.28,-3.3,3988,3685,4095,4095
2,2,11133,0,0.01,0.9,-0.49,-9.07,-2.26,4010,3680,4095,4095
2,2,11145,0.01,0,0.91,0.09,-8.49,0.44,4015,3682,4095,4095
2,2,11157,0.03,0,0.89,-1.07,-8.41,3.64,4007,3683,4095,4095
2,2,11169,0.02,-0.01,0.88,-1.87,-8.23,4.7,4026,3680,4095,4095
2,2,11181,0.03,-0.04,0.89,-1.36,-5.41,5.23,4006,3681,4095,4095
2,2,11193,-0.01,-0.04,0.87,-1.1,-3.97,5.74,4007,3690,4095,4095
2,2,11205,0.01,-0.04,0.89,-0.2,-1.1,3.12,4031,3687,4095,4095
2,2,11217,0.01,-0.04,0.88,-0.04,0.98,0.85,4006,3685,4095,4095
2,2,11229,-0.01,-0.03,0.86,0.51,1.97,-2.78,4014,3679,4095,4095
2,2,11241,0.04,-0.03,0.87,1.38,2.64,-6.56,4016,3683,4095,4095
2,2,11253,0.04,-0.01,0.87,2.04,1.69,-9.82,3982,3695,4095,4095
2,2,11265,0.02,0,0.88,2.67,2.04,-11.62,4033,3683,4095,4095
2,2,11277,0.02,0.02,0.9,1.7,2.23,-9.27,4014,3680,4095,4095
2,2,11289,0,0.03,0.89,0.24,3.56,-5.97,4043,3680,4095,4095
2,2,11301,0.03,0.04,0.89,-1.76,4.53,-2.45,4022,3681,4095,4095
2,2,11313,-0.01,-0.01,0.89,-2.8,4.35,-0.16,4001,3685,4095,4095
2,2,11325,0.01,-0.01,0.9,-2.57,4.17,1.51,4006,3681,4095,4095
2,2,11337,0.01,-0.02,0.91,-1.29,4.69,0.73,4007,3685,4095,4095
2,2,11349,0.01,-0.01,0.91,0.24,3.88,-1.59,4005,3683,4095,4095
2,2,11361,-0.01,-0.02,0.9,0.64,1.31,-2.95,3985,3686,4095,4095
2,2,11373,0,0,0.91,0.59,-0.6,-5.36,4015,3681,4095,4095
2,2,11385,0,-0.01,0.91,0.48,-2.41,-7.43,4010,3680,4095,4095
2,2,11397,-0.01,0,0.9,0.15,-4.69,-8.25,3991,3686,4095,4095
2,2,11409,-0.01,0.01,0.91,0.13,-5.36,-7.94,4001,3682,4095,4095
2,2,11421,0,0.01,0.9,0.24,-6.29,-6.17,4007,3685,4095,4095
2,2,11433,0,0.02,0.89,-0.51,-6.06,-5.5,3979,3680,4095,4095
2,2,11445,0.01,0.01,0.89,-1.39,-5.34,-3.73,4003,3679,4095,4095
2,2,11457,0.02,0.03,0.88,-0.98,-4.61,-3.26,4017,3682,4095,4095
2,2,11469,0.01,0.02,0.88,-1.87,-3.96,-2.78,4011,3680,4095,4095
2,2,11481,0.02,0.01,0.88,-1.73,-3.96,-1.29,3996,3691,4095,4095
2,2,11493,0.03,0.02,0.87,-1.56,-2.72,-1.67,4002,3685,4095,4095
2,2,11505,0.02,0.01,0.87,-1.84,-0.58,-1.09,4013,3681,4095,4095
2,2,11517,-0.01,0.01,0.88,-2.34,-0.12,1.23,4015,3680,4095,4095
2,2,11529,-0.01,0,0.88,-2.39,1.16,2.79,4036,3683,4095,4095
2,2,11541,0.01,0,0.89,-1.23,4.06,2.94,4007,3675,4095,4095
2,2,11553,0.01,-0.01,0.89,-1.27,3.63,2.7,4005,3683,4095,4095
2,2,11565,0.03,0,0.88,-0.74,4.81,0.57,3999,3681,4095,4095
2,2,11577,-0.01,-0.01,0.86,-1.32,3.31,0.12,4002,3681,4095,4095
2,2,11589,0.02,-0.01,0.88,-0.91,1.48,-1.1,4000,3687,4095,4095
2,2,11601,0.02,0,0.88,-0.05,2.26,-3.58,4005,3683,4095,4095
2,2,11613,0,0,0.89,0.28,2.61,-3.21,4032,3686,4095,4095
2,2,11625,0,0.02,0.89,0.32,3.14,-1.76,4010,3690,4095,4095
2,2,11637,0.01,0.02,0.89,-0.75,5.05,-0.25,4007,3687,4095,4095
2,2,11649,0.01,0.02,0.89,-1.56,6.49,0.39,4005,3685,4095,4095
2,2,11661,0.01,0.01,0.88,-2.13,7.1,1.54,4013,3678,4095,4095
2,2,11673,0.02,0.01,0.88,-2.25,6.7,1.99,4031,3682,4095,4095
2,2,11685,0.03,0,0.89,-1.58,9.05,0.67,4006,3692,4095,4095
2,2,11697,-0.02,-0.01,0.89,-0.72,8,1.02,4002,3683,4095,4095
2,2,11709,0.01,0,0.9,-0.49,7.82,2.44,4005,3677,4095,4095
2,2,11721,0.01,0.02,0.91,-0.01,9.37,1.03,3959,3685,4095,4095
2,2,11733,0.01,0,0.91,-0.4,7.72,1.98,4016,3680,4095,4095
2,2,11745,0.02,0,0.93,-0.83,7.14,1.37,4016,3686,4095,4095
2,2,11757,0,0,0.92,-1.26,5.57,-0.22,3990,3683,4095,4095
2,2,11769,-0.02,0,0.92,-1.14,3.88,0.76,4015,3686,4095,4095
2,2,11781,-0.02,-0.01,0.92,-1.24,3.34,1.38,4013,3680,4095,4095
2,2,11793,0.01,-0.01,0.94,-0.4,2.76,0.24,4032,3686,4095,4095
2,2,11805,0,0,0.92,-0.65,0.56,-0.75,4011,3687,4095,4095
2,2,11817,-0.01,0,0.92,-0.6,-1.45,-2.11,4006,3687,4095,4095
2,2,11829,0,0,0.93,-0.28,-3.24,-2.36,4016,3687,4095,4095
2,2,11841,0,0,0.92,0.39,-3.97,-2.51,4029,3679,4095,4095
2,2,11853,0,0.01,0.9,-0.36,-4.26,-1.82,4013,3677,4095,4095
2,2,11865,0.01,0.01,0.9,-0.56,-3.7,-0.8,4034,3680,4095,4095
2,2,11877,0.01,0.01,0.91,-0.33,-1.63,0.03,4027,3679,4095,4095
2,2,11889,0.01,0,0.9,-0.57,-0.28,1.4,4027,3686,4095,4095
2,2,11901,0.02,0.01,0.9,-0.69,1.59,1.26,4006,3683,4095,4095
2,2,11913,0.01,0,0.89,-0.8,2.38,2.44,3996,3683,4095,4095
2,2,11925,0.03,0,0.89,-0.59,4.03,1.37,4003,3685,4095,4095
2,2,11937,0.04,0,0.9,-0.3,5.63,0.03,4007,3689,4095,4095
2,2,11949,0.03,0.01,0.89,-0.63,5.91,-0.68,4038,3679,4095,4095
2,2,11961,0,0.01,0.9,-1.5,5.25,-0.68,4010,3687,4095,4095
2,2,11973,-0.01,0,0.92,-1.41,6.14,0.15,4016,3685,4095,4095
2,2,11985,0,-0.01,0.92,-0.59,6.2,1.23,3971,3683,4095,4095
2,2,11997,0,0.01,0.93,-0.14,5.86,1.08,4016,3685,4095,4095
2,2,12009,0,0,0.93,-0.91,5.4,1,4037,3681,4095,4095
2,2,12021,0,0,0.94,-0.66,5.22,1.29,4014,3679,4095,4095
2,2,12033,0.01,0,0.94,-0.43,3.4,0.96,4015,3680,4095,4095
2,2,12045,0.02,0.01,0.94,-0.92,1.85,-1.14,4009,3693,4095,4095
2,2,12057,0,0,0.92,-1.2,-0.08,-3.61,3999,3685,4095,4095
2,2,12069,-0.01,-0.01,0.93,-0.74,-5.24,-1.62,3969,3678,4095,4095
2,2,12081,-0.02,-0.01,0.94,-1.61,-7.7,-4.17,4027,3682,4095,4095
2,2,12093,-0.02,-0.01,0.92,-0.59,-7.76,-4.36,4009,3686,4095,4095
2,2,12105,-0.04,0,0.92,-0.3,-10.15,-1.88,4016,3693,4095,4095
2,2,12117,-0.03,0,0.94,0.18,-8.89,-1.38,3999,3686,4095,4095
2,2,12129,-0.01,0,0.92,0.54,-7.79,-0.05,4013,3684,4095,4095
2,2,12141,0.04,0,0.91,-0.1,-7.21,-0.2,4010,3681,4095,4095
2,2,12153,0.06,0.01,0.91,-1.99,-6.84,-3.68,4012,3682,4095,4095
3,2,42381,0.01,0.01,0.92,-0.52,-1.59,-2.74,3904,3523,4095,4095
3,2,42393,0.01,0.01,0.92,-1.38,-1.7,-0.8,3906,3522,4095,4095
3,2,42405,0.01,0,0.92,-1.64,-0.25,0.86,3913,3521,4095,4095
3,2,42417,0.01,-0.01,0.91,-1.7,1.56,1.74,3890,3520,4095,4095
3,2,42429,0.02,-0.01,0.92,-1.3,4.47,1.83,3888,3513,4095,4095
3,2,42441,0.02,-0.01,0.92,-1.09,6.04,2.1,3907,3521,4095,4095
3,2,42453,0.01,0,0.93,-0.97,7.74,2.39,3875,3521,4095,4095
3,2,42465,0.02,-0.01,0.93,-0.69,7.68,2.01,3891,3524,4095,4095
3,2,42477,0.01,0.01,0.93,-1.44,7.71,2.39,3904,3524,4095,4095
3,2,42489,-0.01,-0.01,0.94,-1.33,7.13,1.9,3915,3522,4095,4095
3,2,42501,0.01,-0.01,0.94,-1.78,6.08,1.78,3913,3529,4095,4095
3,2,42513,0,-0.01,0.94,-2.16,5.88,2.21,3906,3523,4095,4095
3,2,42525,0,-0.02,0.95,-2.31,5.16,1.61,3889,3525,4095,4095
3,2,42537,0.02,-0.02,0.95,-1.72,5.95,0.61,3901,3527,4095,4095
3,2,42549,0,-0.02,0.95,-1.43,6,0.67,3924,3520,4095,4095
3,2,42561,0,-0.03,0.96,-0.91,7.56,0.38,3894,3523,4095,4095
3,2,42573,-0.01,-0.04,0.97,-1.09,6.35,-0.72,3903,3522,4095,4095
3,2,42585,0.01,-0.05,0.95,-0.16,4.32,-2.45,3915,3527,4095,4095
3,2,42597,0.01,-0.01,0.98,-0.16,3.31,-5.56,3935,3526,4095,4095
3,2,42609,-0.01,-0.01,0.92,-1.06,0.99,-9.14,3891,3523,4095,4095
3,2,42621,-0.01,-0.02,0.95,-1.27,-2.38,-7.94,3901,3517,4095,4095
3,2,42633,-0.01,0.01,0.94,-1.29,-3.22,-8.36,3915,3524,4095,4095
3,2,42645,-0.01,0.01,0.93,-1.56,-4.05,-8.23,3888,3523,4095,4095
3,2,42657,0.01,0.01,0.94,-1.1,-2.99,-6.85,3888,3522,4095,4095
3,2,42669,0.01,0.02,0.94,-0.81,-1.94,-4.45,3898,3525,4095,4095
3,2,42681,0.02,0.02,0.94,-0.28,-0.06,-2.63,3894,3523,4095,4095
3,2,42693,0.02,0.03,0.93,0.03,1.62,-0.01,3920,3520,4095,4095
3,2,42705,0.03,0.01,0.94,-0.19,3.05,2.48,3890,3519,4095,4095
3,2,42717,0.04,0.01,0.94,-0.33,3.98,3.86,3943,3526,4095,4095
3,2,42729,0.03,0,0.92,-1.58,3.85,3.99,3910,3517,4095,4095
3,2,42741,-0.02,-0.02,0.91,-2.88,3.53,4.24,3919,3520,4095,4095
3,2,42753,-0.02,-0.03,0.95,-1.9,5.37,3.09,3909,3510,4095,4095
3,2,42765,-0.02,-0.04,0.95,-0.48,6.66,1.7,3911,3521,4095,4095
3,2,42777,-0.01,-0.03,0.96,0.79,7.83,1.67,3894,3518,4095,4095
3,2,42789,0.02,-0.01,0.97,0.61,7.16,1.15,3915,3520,4095,4095
3,2,42801,0.01,-0.01,0.96,-0.48,6.26,0.36,3913,3511,4095,4095
3,2,42813,0,0.01,0.96,-2.01,4.14,0.12,3899,3519,4095,4095
3,2,42825,-0.02,0,0.94,-3.91,0.98,0.38,3918,3523,4095,4095
3,2,42837,-0.01,-0.01,0.96,-4.16,-0.95,0.68,3921,3520,4095,4095
3,2,42849,-0.01,-0.02,0.97,-3.23,-1.25,0.53,3911,3523,4095,4095
3,2,42861,0,-0.03,0.97,-2.19,-0.92,0.7,3925,3526,4095,4095
3,2,42873,0.01,-0.01,0.96,-1.3,0.03,0.47,3894,3522,4095,4095
3,2,42885,-0.01,-0.01,0.96,-1.15,0.66,1,3905,3557,4095,4095
3,2,42897,0,-0.01,0.97,0.04,0.14,2.57,3910,3523,4095,4095
3,2,42909,0,0,0.98,0.33,-1.15,3.15,3919,3520,4095,4095
3,2,42921,0.02,0,0.96,-0.25,-1.25,1.17,3925,3522,4095,4095
3,2,42933,-0.01,-0.02,0.94,-1.59,-4.67,1.69,3895,3529,4095,4095
3,2,42945,0.02,-0.01,0.97,-1.47,-4.09,1.8,3918,3522,4095,4095
3,2,42957,0.01,-0.02,0.95,-1.75,-2.72,-0.01,3900,3520,4095,4095
3,2,42969,0.01,-0.03,0.94,-1.7,-1.63,-0.05,3910,3527,4095,4095
3,2,42981,0,-0.03,0.93,-1.12,-0.78,0.09,3917,3491,4095,4095
3,2,42993,-0.03,-0.04,0.94,0.15,1.49,0.7,3941,3523,4095,4095
3,2,43005,0.01,-0.02,0.97,1.83,1.82,1.31,3918,3522,4095,4095
3,2,43017,0.03,-0.02,0.96,1.92,3.72,0.1,3921,3522,4095,4095
3,2,43029,0.04,0.02,0.96,1.66,4.08,-1.79,3899,3520,4095,4095
3,2,43041,0.05,0.01,0.98,-0.51,3.89,-2.28,3883,3519,4095,4095
3,2,43053,0.04,-0.01,0.95,-2.01,2.43,-3.09,3914,3529,4095,4095
3,2,43065,-0.03,0.01,0.95,-2.3,1.17,-2.88,3917,3518,4095,4095
3,2,43077,-0.18,-0.01,0.98,-3.39,-0.35,2.25,3904,3521,4095,4095
3,2,43089,0.12,-0.03,1.01,1.73,1.97,3.26,3899,3520,4095,4095
3,2,43101,0.15,-0.01,0.84,-0.34,-2.12,-3.24,3909,3520,4095,4095
3,2,43113,-0.13,0.01,0.95,-2.98,-2.6,-2.2,3910,3533,4095,4095
3,2,43125,-0.16,-0.03,1.03,1.44,0.87,6.5,3920,3520,4095,4095
3,2,43137,0.1,-0.01,0.98,3.43,0.29,7.72,3861,3522,4095,4095
3,2,43149,0.16,-0.01,0.93,1.48,-2.08,-1.21,3927,3527,4095,4095
3,2,43161,-0.05,-0.01,0.94,-0.95,-3.74,-5.2,3915,3521,4095,4095
3,2,43173,-0.1,-0.02,0.99,-0.42,-2.57,0.03,3861,3536,4095,4095
3,2,43185,0.04,0,0.97,0.42,-3.22,3.46,3863,3522,4095,4095
3,2,43197,0.03,-0.01,0.91,-2.51,-4.75,-0.1,3903,3525,4095,4095
3,2,43209,-0.08,-0.03,0.97,-2.01,-4.22,1.84,3866,3525,4095,4095
3,2,43221,-0.02,-0.02,0.98,0.9,-4.51,4.25,3920,3525,4095,4095
3,2,43233,0.07,-0.02,0.95,0.8,-4.08,0.44,3903,3527,4095,4095
3,2,43245,0.03,-0.01,0.94,-0.2,-5.85,-2.51,3881,3529,4095,4095
3,2,43257,0,-0.01,0.97,0.38,-6.11,-2.45,3902,3525,4095,4095
3,2,43269,0,0,0.95,-1.33,-7.7,-0.62,3920,3519,4095,4095
3,2,43281,0.01,-0.01,0.95,-1.32,-7.77,0.41,3930,3515,4095,4095
3,2,43293,-0.01,0,0.93,-1.84,-8.78,0.3,3899,3525,4095,4095
3,2,43305,-0.07,-0.04,0.9,-2.8,-9.91,1.72,3879,3533,4095,4095
3,2,43317,-0.01,-0.03,0.94,-0.02,-7.97,2.47,3920,3530,4095,4095
3,2,43329,0.04,-0.01,0.93,0.07,-7.19,1.9,3907,3525,4095,4095
3,2,43341,0.06,0,0.95,0.16,-5.04,-0.71,3903,3523,4095,4095
3,2,43353,0.03,-0.01,0.92,-0.89,-5.18,-0.8,3905,3519,4095,4095
3,2,43365,0.01,-0.01,0.92,-2.1,-4.69,0.53,3914,3522,4095,4095
3,2,43377,0,-0.02,0.92,-2.71,-4.02,0.18,3912,3522,4095,4095
3,2,43389,0,-0.02,0.93,-3.01,-4.15,1.29,3920,3523,4095,4095
3,2,43401,-0.02,-0.03,0.93,-2.04,-3.65,1.29,3939,3519,4095,4095
3,2,43413,-0.01,-0.02,0.93,-1.35,-3.12,1.23,3923,3520,4095,4095
3,2,43425,0.01,-0.03,0.93,-0.46,-2.64,0.73,3903,3525,4095,4095
3,2,43437,0.02,-0.01,0.94,-1.09,-3.13,0.33,3917,3530,4095,4095
3,2,43449,0,-0.01,0.93,-2.19,-4.14,0.18,3914,3523,4095,4095
3,2,43461,0,-0.02,0.93,-1.65,-4.46,-0.04,3920,3521,4095,4095
3,2,43473,0.01,-0.02,0.94,-1.46,-3.86,-0.01,3927,3520,4095,4095
3,2,43485,-0.01,-0.03,0.91,-1.46,-4.99,0.57,3940,3518,4095,4095
3,2,43497,0.01,-0.02,0.91,-1.65,-4.34,0.19,3886,3523,4095,4095
3,2,43509,0.01,-0.03,0.91,-1.38,-3.34,-0.49,3913,3525,4095,4095
3,2,43521,0.03,-0.03,0.94,-0.51,-3.28,0.27,3919,3520,4095,4095
3,2,43533,0.02,-0.02,0.92,-0.2,-1.59,-0.92,3910,3525,4095,4095
3,2,43545,0.01,-0.02,0.91,-0.6,-1.01,-0.23,3904,3521,4095,4095
3,2,43557,0.01,-0.01,0.92,-0.36,-0.83,0.28,3907,3527,4095,4095
3,2,43569,0.01,-0.02,0.92,-1.32,-1.01,-0.43,3903,3526,4095,4095
3,2,43581,0,-0.03,0.91,-1.38,-1.21,-0.17,3903,3525,4095,4095
3,2,43593,0.01,-0.03,0.92,-1.07,-0.78,-0.51,3909,3527,4095,4095
3,2,43605,0.02,-0.03,0.92,-0.85,0.29,-1.18,3938,3523,4095,4095
3,2,43617,0.02,-0.03,0.92,-0.62,1.34,-1.39,3936,3527,4095,4095
3,2,43629,0.02,-0.02,0.92,-0.77,2.01,-2.3,3921,3519,4095,4095
3,2,43641,0,-0.03,0.92,-0.72,3.14,-2.16,3924,3526,4095,4095
3,2,43653,-0.01,-0.02,0.92,-0.05,3.36,-1.76,3907,3527,4095,4095
3,2,43665,0.01,-0.02,0.92,-0.02,2.69,-2.13,3920,3519,4095,4095
3,2,43677,0.01,-0.01,0.93,-0.49,1.98,-3.2,3883,3529,4095,4095
3,2,43689,-0.01,-0.01,0.94,-0.71,1.14,-3.04,3890,3523,4095,4095
3,2,43701,-0.01,-0.01,0.94,-0.71,0.78,-1.68,3900,3523,4095,4095
3,2,43713,0.02,-0.01,0.92,-1.49,-0.15,-2.22,3903,3523,4095,4095
3,2,43725,0.01,-0.02,0.91,-2.45,-1.65,-2.66,3905,3523,4095,4095
3,2,43737,-0.02,-0.02,0.93,-1.87,-0.67,-1.58,3883,3520,4095,4095
3,2,43749,-0.04,-0.02,0.94,-1.41,0.04,0.42,3937,3519,4095,4095
3,2,43761,-0.02,-0.02,0.92,-0.77,0.64,0.97,3906,3520,4095,4095
3,2,43773,0.01,-0.03,0.92,-0.98,-0.11,-0.08,3916,3523,4095,4095
3,2,43785,0.03,-0.01,0.92,-0.85,-1.22,-2.33,3905,3521,4095,4095
3,2,43797,0.02,-0.02,0.93,-0.97,-1.31,-4.48,3888,3521,4095,4095
3,2,43809,0.01,-0.02,0.93,-0.65,-1.79,-3.04,3901,3520,4095,4095
3,2,43821,0.02,-0.01,0.93,-0.46,-0.78,-2.95,3873,3526,4095,4095
3,2,43833,0,-0.03,0.94,-0.31,0.84,-2.8,3904,3527,4095,4095
3,2,43845,0,-0.03,0.94,1.03,2.44,-1.55,3903,3520,4095,4095
3,2,43857,0,-0.03,0.92,0.65,0.35,-2.71,3913,3520,4095,4095
3,2,43869,0.01,-0.02,0.93,1.15,-1.25,-3.62,3933,3520,4095,4095
3,2,43881,-0.01,-0.01,0.94,1.52,-2.32,-4.43,3922,3545,4095,4095
3,2,43893,0,0.01,0.94,1.09,-4.61,-6.23,3895,3525,4095,4095
3,2,43905,0,-0.01,0.91,-0.19,-6.76,-6.23,3914,3523,4095,4095
3,2,43917,0,0.02,0.92,-0.17,-7.67,-5.53,3900,3522,4095,4095
3,2,43929,-0.03,0.01,0.93,-1.01,-8.55,-4.54,3920,3526,4095,4095
3,2,43941,-0.03,0,0.94,-1.12,-7.45,-2.43,3911,3521,4095,4095
3,2,43953,0.04,0.01,0.88,-1.61,-8.76,-1.73,3936,3521,4095,4095
3,2,43965,0.08,-0.01,0.89,-1.43,-8.64,-3.61,3941,3525,4095,4095
3,2,43977,0,0,0.87,-2.69,-11.25,-3.21,3903,3523,4095,4095
3,2,43989,-0.07,-0.01,0.91,-2.05,-7.5,-0.04,3869,3523,4095,4095
3,2,44001,-0.02,-0.03,0.93,0.06,-1.42,2.51,3914,3519,4095,4095
3,2,44013,0.07,0,0.87,1.05,2.67,2.61,3902,3525,4095,4095
3,2,44025,0.03,0.01,0.84,-1.96,3.51,2.35,3890,3525,4095,4095
3,2,44037,0,0,0.9,-2.23,6.11,2.27,3907,3517,4095,4095
3,2,44049,0.05,-0.01,0.92,-0.57,9.95,2.57,3914,3523,4095,4095
3,2,44061,0.06,0.01,0.89,-1.3,11.07,3.06,3904,3508,4095,4095
3,2,44073,0,0,0.9,-2.77,12.44,3.57,3932,3522,4095,4095
3,2,44085,-0.04,-0.02,0.94,-2.16,12.35,7.15,3927,3525,4095,4095
3,2,44097,0.03,-0.02,0.93,-1.61,12.29,5.6,3901,3522,4095,4095
3,2,44109,0.02,-0.04,0.9,-2.05,9.85,0.91,3892,3534,4095,4095
3,2,44121,-0.02,-0.04,0.96,-0.66,8.55,-0.86,3904,3513,4095,4095
3,2,44133,-0.04,-0.03,0.97,-0.66,5.72,-1.78,3918,3538,4095,4095
3,2,44145,-0.01,-0.02,0.96,-0.04,3.77,-2.46,3888,3521,4095,4095
3,2,44157,-0.04,-0.01,0.94,-1.04,0.59,-2.31,3892,3523,4095,4095
3,2,44169,-0.04,-0.01,0.96,-1.15,-2.54,-1.76,3914,3526,4095,4095
3,2,44181,-0.01,-0.02,0.95,0.33,-4.44,-1.17,3885,3520,4095,4095
3,2,44193,0.01,0,0.92,0.01,-6.67,-1.73,3925,3533,4095,4095
3,2,44205,0,0,0.91,-0.86,-8.17,-1.2,3893,3523,4095,4095
3,2,44217,0,0,0.91,-1.35,-7.85,-0.2,3920,3522,4095,4095
3,2,44229,0.02,0,0.91,-2.23,-5.86,0.91,3903,3530,4095,4095
3,2,44241,0.01,-0.02,0.91,-2.39,-3.01,0.88,3862,3520,4095,4095
3,2,44253,0.03,-0.01,0.9,-2.49,-1.41,1.49,3905,3520,4095,4095
3,2,44265,0.03,-0.02,0.9,-1.84,2.08,1.64,3888,3539,4095,4095
3,2,44277,0.02,-0.02,0.91,-1.35,4.81,0.83,3914,3524,4095,4095
3,2,44289,0.03,-0.02,0.91,-0.71,6.72,0.68,3920,3527,4095,4095
3,2,44301,0.03,-0.02,0.92,-0.94,7.24,-0.16,3899,3526,4095,4095
3,2,44313,0,-0.02,0.93,-1.23,6.93,-0.68,3935,3524,4095,4095
3,2,44325,-0.02,-0.03,0.94,-0.8,5.74,-0.33,3937,3520,4095,4095
3,2,44337,-0.02,-0.02,0.95,-0.8,3.75,-0.56,3943,3523,4095,4095
3,2,44349,-0.01,-0.02,0.94,-1.18,1.46,-1.87,3915,3518,4095,4095
3,2,44361,-0.01,-0.02,0.95,-1.47,-1.13,-2.14,3941,3521,4095,4095
3,2,44373,-0.01,-0.02,0.94,-1.06,-2.54,-2.28,3904,3522,4095,4095
3,2,44385,-0.01,-0.02,0.95,-0.48,-3.28,-2.51,3901,3523,4095,4095
4,2,93297,-0.03,0.01,1.02,-1.72,-1.3,0.42,3953,3716,4095,4095
4,2,93310,-0.01,-0.01,1.02,-1.44,-1.96,0.77,3952,3712,4095,4095
4,2,93321,0.01,0,1.02,-2.08,-3.42,0.21,3978,3721,4095,4095
4,2,93333,0,0,1.03,-1.64,-2.99,0.18,3977,3712,4095,4095
4,2,93345,-0.01,-0.01,1.03,-1.09,-2.52,-0.11,3939,3710,4095,4095
4,2,93357,0,0,1.02,-1.23,-2.29,-0.51,3942,3718,4095,4095
4,2,93369,-0.01,-0.01,1.01,-1.27,-3.12,0.03,3961,3718,4095,4095
4,2,93381,-0.01,-0.01,1.03,-0.65,-4.31,0.22,3956,3727,4095,4095
4,2,93393,0.05,-0.01,1.02,0.67,-5.27,-2.91,3962,3714,4095,4095
4,2,93405,0.05,-0.02,1.02,0.56,-5.79,-5.99,3952,3713,4095,4095
4,2,93417,0.02,0.01,1.01,1.26,-4.11,-7,3980,3721,4095,4095
4,2,93429,-0.02,0.02,1,0.83,-2.66,-5.53,3986,3715,4095,4095
4,2,93441,0,0.02,1,-0.37,-1.31,-2.8,3951,3723,4095,4095
4,2,93453,-0.02,0.01,1.01,0.3,-0.25,-1.84,3991,3725,4095,4095
4,2,93465,-0.02,0.01,1.01,0.03,0.84,-0.92,3920,3712,4095,4095
4,2,93477,-0.02,0.01,1.02,0.38,-0.12,0.44,3920,3721,4095,4095
4,2,93489,0.01,0,1.01,-0.22,-1.94,0.45,3920,3711,4095,4095
4,2,93501,0.06,-0.01,1.03,0.24,-3.15,-2.43,3954,3714,4095,4095
4,2,93513,0.09,-0.01,1.02,0.45,-3.3,-7.24,3935,3718,4095,4095
4,2,93525,0.06,0,1,1.54,-2.6,-11.23,3953,3728,4095,4095
4,2,93537,0.04,0.01,0.98,0.9,-0.86,-13.2,3955,3712,4095,4095
4,2,93549,0.01,0,0.99,1.11,0.79,-10.36,3963,3723,4095,4095
4,2,93561,0.01,0.01,1.01,2.51,3.14,-12.04,3963,3715,4095,4095
4,2,93573,0.01,0.03,1,1.32,5.8,-12.83,3961,3717,4095,4095
4,2,93585,-0.03,0.01,1.01,1.95,6.79,-11.15,3959,3723,4095,4095
4,2,93597,-0.04,0.03,1.02,0.76,3.43,-6.2,3981,3720,4095,4095
4,2,93609,-0.06,0.02,1.03,0.77,2.38,-4.33,3966,3707,4095,4095
4,2,93621,-0.03,0.04,1.02,1.17,2.14,-2.54,3937,3713,4095,4095
4,2,93633,-0.06,0.03,1.03,-0.74,-1.88,0.07,3956,3707,4095,4095
4,2,93645,-0.04,0.03,1.02,-1.7,-4.28,1.08,3970,3723,4095,4095
4,2,93657,-0.02,0.01,1.02,-1.15,-5.94,0.67,3984,3703,4095,4095
4,2,93669,0,0.01,1.02,0.03,-6.54,0.18,3954,3721,4095,4095
4,2,93681,0.02,0.02,1.02,0.32,-6.87,-0.46,3948,3718,4095,4095
4,2,93693,0.04,0.03,1.02,0.82,-5.73,-1.59,3984,3718,4095,4095
4,2,93705,0.02,0.04,1.01,0.13,-6.75,-1.59,3952,3722,4095,4095
4,2,93717,0,0.03,1,-0.65,-7.85,-0.63,3898,3715,4095,4095
4,2,93729,-0.01,0.03,1.01,-0.74,-7.86,0.35,3951,3723,4095,4095
4,2,93741,-0.01,0.03,0.98,-0.62,-8.09,1.22,3945,3716,4095,4095
4,2,93753,-0.03,0.03,0.98,-1.3,-8.15,3.84,3954,3726,4095,4095
4,2,93765,0,0.04,1,-1.64,-6.99,4.62,3963,3717,4095,4095
4,2,93777,0.03,0.04,1,-1.68,-6.02,4.01,3952,3715,4095,4095
4,2,93789,0.05,0.04,1,-1.9,-5.01,4.24,3952,3714,4095,4095
4,2,93801,0.02,0.03,1,-1.88,-5.56,4.44,3949,3715,4095,4095
4,2,93813,0.01,0.03,0.99,-2.71,-6.2,5.32,3937,3722,4095,4095
4,2,93825,0.03,0.02,1,-2.22,-6.26,4.16,3959,3722,4095,4095
4,2,93837,0,-0.01,0.98,-1.73,-5.56,2.01,3988,3719,4095,4095
4,2,93849,0.02,0.01,0.99,-0.17,-5.68,-0.04,3961,3728,4095,4095
4,2,93861,-0.02,0.01,0.97,-0.28,-5.79,0.33,3953,3719,4095,4095
4,2,93873,-0.04,0,0.98,-0.27,-6.14,2.85,3962,3725,4095,4095
4,2,93885,-0.03,0,0.99,-0.19,-6.31,3.83,3943,3721,4095,4095
4,2,93897,0,0,1,-0.17,-7.48,0.96,3961,3719,4095,4095
4,2,93909,0.03,0.01,1.01,0.44,-8.89,-2.2,3955,3719,4095,4095
4,2,93921,0.05,0.01,1,0.56,-9.74,-5.39,3939,3727,4095,4095
4,2,93933,0.09,-0.04,1.06,1.11,-8.76,-13.55,3978,3718,4095,4095
4,2,93945,0.05,0.01,0.91,3.67,-12.18,-15.35,3948,3717,4095,4095
4,2,93957,0.05,0.03,1,3.6,-14.12,-15.33,3755,3722,4095,4095
4,2,93969,0.04,0.01,0.98,2.21,-18.05,-20.51,3793,3718,4095,4095
4,2,93981,-0.05,0.02,1,6.21,-13.86,-20.92,3812,3715,4095,4095
4,2,93993,-0.07,0.05,0.98,2.09,-14.7,-16.8,3835,3713,4095,4095
4,2,94005,-0.07,0.05,1,3.58,-15.73,-8.8,3792,3723,4095,4095
4,2,94017,-0.06,0.06,0.95,1.57,-15.96,-1.78,3871,3714,4095,4095
4,2,94029,0,0.05,0.95,0.09,-15.04,-1.99,3872,3724,4095,4095
4,2,94041,0.03,0.03,0.95,0.36,-15.33,-1.88,3852,3719,4095,4095
4,2,94053,0.03,0.05,0.92,-0.98,-16.52,-1.04,3939,3728,4095,4095
4,2,94065,0.01,0.04,0.94,-1.03,-14.43,-1.32,3900,3717,4095,4095
4,2,94077,0.01,0.03,0.93,-0.27,-12.05,0.19,3796,3715,4095,4095
4,2,94089,0.01,0.02,0.95,-0.59,-10.95,1.89,2957,3722,4095,4095
4,2,94101,0.04,0.04,0.93,-1.38,-10.55,-0.62,3728,3718,4095,4095
4,2,94113,0.04,0.03,0.93,-2.05,-8.8,-3.55,2678,3721,4095,4095
4,2,94125,0.05,0.03,0.94,-0.48,-7.25,-5.3,3501,3728,4095,4095
4,2,94137,0,0.04,0.91,-0.25,-4.26,-3.88,3026,3719,4095,4095
4,2,94149,0,0.04,0.92,0.01,-1.73,0.19,2815,3713,4095,4095
4,2,94161,0.05,0.03,0.93,0.36,0.4,1.61,3422,3722,4095,4095
4,2,94173,0.06,0.04,0.93,0.3,2.55,-1.09,2771,3716,4095,4095
4,2,94185,0.08,0.03,0.93,0.8,2.67,-6.13,3577,3722,4095,4095
4,2,94197,0.07,0.03,0.93,1.51,2.82,-9.44,3088,3715,4095,4095
4,2,94209,0.01,0.04,0.93,2.48,1.49,-10.98,3059,3729,4095,4095
4,2,94221,-0.05,0.05,0.93,2.61,0.55,-8.88,3274,3713,4095,4095
4,2,94233,-0.07,0.04,0.93,1.95,1.07,-3.73,3325,3728,4095,4095
4,2,94245,-0.01,0.05,0.93,1.69,2.33,-0.4,3771,3725,4095,4095
4,2,94257,0.03,0.05,0.94,1.26,4.59,-0.25,3185,3719,4095,4095
4,2,94269,0.06,0.04,0.94,0.85,4.81,-2.42,2962,3717,4095,4095
4,2,94281,0.07,0.04,0.99,2.07,5.53,-7.72,3804,3723,4095,4095
4,2,94293,0.05,0.05,0.97,3.77,3.97,-11.81,3408,3719,4095,4095
4,2,94305,0.01,0.06,0.95,2.86,-0.78,-12.65,3691,3719,4095,4095
4,2,94317,-0.01,0.09,0.92,1.54,-0.57,-12.13,3463,3719,4095,4095
4,2,94329,-0.02,0.06,0.93,0.32,-0.35,-6.13,3198,3712,4095,4095
4,2,94341,-0.01,0.06,0.96,-0.27,0.69,-0.65,3861,3717,4095,4095
4,2,94353,0.05,0.04,0.95,0.8,4.23,-2.68,2524,3750,4095,4095
4,2,94365,0.03,0.03,0.94,1.96,5.19,-5.01,3600,3719,4095,4095
4,2,94377,0,0.08,0.93,0.39,3.08,-7.41,3905,3725,4095,4095
4,2,94389,0.01,0.04,0.98,-0.11,1.77,-7.26,3861,3713,4095,4095
4,2,94401,-0.02,0.05,0.98,0.99,1.42,-6.3,3991,3711,4095,4095
4,2,94413,-0.03,0.06,0.96,1.02,0.7,-6.04,3963,3715,4095,4095
4,2,94425,0.01,0.05,0.94,0.28,-2.96,-5.7,3947,3715,4095,4095
4,2,94437,0.08,0.07,0.95,0.36,-5.41,-9.44,3953,3721,4095,4095
4,2,94449,0.12,0.06,0.97,0.36,-6.31,-14.97,3967,3718,4095,4095
4,2,94461,0.09,0.08,0.95,1.63,-6.47,-19.82,3951,3713,4095,4095
4,2,94473,0.04,0.09,0.96,2.15,-6.25,-21.35,3952,3715,4095,4095
4,2,94485,-0.01,0.1,0.96,2.13,-6.06,-19.29,3958,3718,4095,4095
4,2,94497,-0.04,0.08,0.98,2.86,-6.32,-13.18,3952,3718,4095,4095
4,2,94509,-0.06,0.07,0.97,4.13,-6.57,-9.9,3962,3719,4095,4095
4,2,94521,-0.07,0.09,0.96,5.25,-8.7,-6.31,3938,3714,4095,4095
4,2,94533,-0.06,0.08,0.93,3.72,-14.08,-5.44,3950,3713,4095,4095
4,2,94545,0.02,0.09,0.93,4.33,-17.47,-8.23,3952,3713,4095,4095
4,2,94557,0.09,0.09,0.95,4.88,-20.78,-12.88,3962,3719,4095,4095
4,2,94569,0.07,0.11,0.91,4.38,-22.75,-15.76,3967,3715,4095,4095
4,2,94581,0.06,0.13,0.93,3.28,-22.38,-15.5,3943,3717,4095,4095
4,2,94593,-0.03,0.12,0.89,1.93,-20.93,-10.57,3938,3725,4095,4095
4,2,94605,-0.07,0.11,0.87,0.1,-19.59,-3.97,3908,3712,4095,4095
4,2,94617,-0.06,0.09,0.91,0.15,-16.54,0.45,3964,3722,4095,4095
4,2,94629,0.04,0.08,0.91,2.27,-15.09,-0.69,3967,3707,4095,4095
4,2,94641,0.09,0.1,0.89,2.18,-15.22,-6.57,3952,3713,4095,4095
4,2,94653,0.11,0.12,0.86,1.12,-16.46,-13.18,3955,3714,4095,4095
4,2,94665,0.11,0.15,0.84,-2.27,-14.05,-15.81,3984,3722,4095,4095
4,2,94677,0.09,0.13,0.83,-4.48,-11.67,-17.01,3918,3725,4095,4095
4,2,94689,0.09,0.11,0.83,-5,-6.61,-16.51,3958,3723,4095,4095
4,2,94701,0.07,0.11,0.9,-3.38,0.38,-16.66,3958,3716,4095,4095
4,2,94713,0.02,0.1,0.84,-3.93,4.35,-17.58,3934,3717,4095,4095
4,2,94725,0,0.08,0.86,-3.12,6.66,-14.23,3959,3717,4095,4095
4,2,94737,0.05,0.12,0.89,-1.06,11.49,-15.96,3951,3717,4095,4095
4,2,94749,0.13,0.14,0.89,-0.6,14.69,-22.6,3952,3717,4095,4095
4,2,94761,0.13,0.16,0.89,-2.37,13.69,-24.51,3974,3714,4095,4095
4,2,94773,0.06,0.17,0.85,-5.84,11.57,-25.01,3950,3725,4095,4095
4,2,94785,0,0.13,0.92,-6.02,13.3,-21.33,3965,3711,4095,4095
4,2,94797,-0.06,0.15,0.96,-2.11,17.05,-17.5,3952,3713,4095,4095
4,2,94809,-0.08,0.16,0.93,-0.98,19.75,-15.99,3959,3717,4095,4095
4,2,94821,-0.12,0.14,0.92,0.32,18.43,-6.19,3982,3719,4095,4095
4,2,94833,-0.1,0.14,0.95,0.47,16.23,-0.4,3920,3715,4095,4095
4,2,94845,-0.03,0.16,0.93,-0.54,13.28,-1.97,3956,3713,4095,4095
4,2,94857,-0.01,0.14,0.94,0.1,5.33,-3,3962,3735,4095,4095
4,2,94869,0.05,0.18,0.93,0.61,-2.44,-4.8,3951,3717,4095,4095
4,2,94881,0.07,0.17,0.96,2.9,-3.7,-13.07,3963,3723,4095,4095
4,2,94893,0.02,0.17,0.91,3.77,-5.45,-10.95,3952,3719,4095,4095
4,2,94905,0.01,0.18,0.91,-0.16,-7.39,-2.16,3973,3722,4095,4095
4,2,94917,0,0.17,0.94,0.22,-2.22,-0.11,3941,3719,4095,4095
4,2,94929,0.03,0.15,0.92,-0.54,0.81,1.25,3993,3722,4095,4095
4,2,94941,0.06,0.17,0.92,-0.39,1.89,0.15,3947,3719,4095,4095
4,2,94953,0.08,0.17,0.91,-1.73,2.26,-1.81,3952,3715,4095,4095
4,2,94965,0.06,0.17,0.91,-1.59,4.09,-3.27,3952,3724,4095,4095
4,2,94977,0.02,0.16,0.9,-1.85,4.49,-2.6,3951,3721,4095,4095
4,2,94989,0.02,0.17,0.91,-1.61,5.78,-1.55,3975,3721,4095,4095
4,2,95001,0.01,0.17,0.91,-1.49,7.48,-0.62,3955,3722,4095,4095
4,2,95013,-0.01,0.16,0.92,-1.99,8.5,0.38,3921,3713,4095,4095
4,2,95025,-0.02,0.16,0.92,-1.99,9.75,2.1,3952,3715,4095,4095
4,2,95037,0,0.15,0.94,-1.59,10.75,3.54,3929,3712,4095,4095
4,2,95049,0.01,0.14,0.94,-0.27,10.53,3.95,3958,3723,4095,4095
4,2,95061,0.01,0.16,0.94,-0.66,8.96,4.8,3952,3718,4095,4095
4,2,95073,0.03,0.16,0.94,-0.6,5.91,5,3947,3717,4095,4095
4,2,95085,0.07,0.17,0.96,-0.3,5.74,1.22,3930,3722,4095,4095
4,2,95097,0.06,0.17,0.92,-0.95,4.66,-1.43,3938,3718,4095,4095
4,2,95109,0.04,0.15,0.92,-0.78,3.75,-0.17,3909,3717,4095,4095
4,2,95121,0.05,0.16,0.93,-0.25,3.19,0.15,3968,3712,4095,4095
4,2,95133,0.04,0.18,0.94,-0.05,5.51,-2.13,3945,3714,4095,4095
4,2,95145,0,0.16,0.94,-1.09,5.75,-1.3,3952,3718,4095,4095
4,2,95157,-0.01,0.17,0.94,-2.16,4.61,2.22,3949,3719,4095,4095
4,2,95169,-0.01,0.16,0.96,-2.72,5.07,3.19,3953,3716,4095,4095
4,2,95181,-0.01,0.15,0.97,-2.08,5.85,3.78,3980,3717,4095,4095
4,2,95193,0.03,0.15,0.95,-1.39,2.53,3.44,3961,3725,4095,4095
4,2,95205,0.05,0.16,0.95,-0.14,2.52,0.97,3966,3717,4095,4095
4,2,95217,0.06,0.17,0.95,-0.43,1.05,-1.26,4016,3725,4095,4095
4,2,95229,0.05,0.17,0.95,-0.49,0.14,-0.68,3952,3721,4095,4095
4,2,95241,0.03,0.18,0.94,-1.5,-1.53,-0.34,3970,3718,4095,4095
4,2,95253,0.04,0.16,0.95,-1.1,-0.66,-0.72,3935,3725,4095,4095
4,2,95265,0,0.16,0.93,-2.11,-1.59,0.99,3937,3718,4095,4095
4,2,95277,0.01,0.16,0.95,-3.18,-1.56,3.15,3957,3719,4095,4095
4,2,95289,-0.02,0.14,0.94,-3.65,0.85,4.8,3959,3718,4095,4095
4,2,95301,-0.01,0.13,0.95,-3.33,2.4,5.49,3986,3718,4095,4095
4,2,95313,0.03,0.13,0.94,-2.1,4.04,3.92,3951,3719,4095,4095
5,2,122721,0.02,0.03,0.95,-0.33,-0.78,-2.31,3907,3599,4095,4095
5,2,122733,0.02,0.03,0.95,-0.04,-0.18,-2.42,3943,3583,4095,4095
5,2,122745,0.02,0.05,0.96,0.13,1.08,-2.94,3910,3583,4095,4095
5,2,122757,0,0.05,0.95,-0.56,1.22,-1.2,3904,3583,4095,4095
5,2,122769,-0.01,0.05,0.96,-1.09,0.43,0.01,3931,3583,4095,4095
5,2,122781,0,0.05,0.96,-0.78,0.59,-0.26,3920,3583,4095,4095
5,2,122793,0.02,0.05,0.97,-1.24,0.75,-0.05,3889,3583,4095,4095
5,2,122805,0,0.06,0.94,-1.55,0.01,0.32,3872,3581,4095,4095
5,2,122817,0.01,0.06,0.95,-2.83,-0.92,1.06,3913,3583,4095,4095
5,2,122829,0.03,0.04,0.96,-2.17,0.87,0.16,3907,3583,4095,4095
5,2,122841,0.04,0.04,0.97,-0.54,3.11,-0.42,3918,3581,4095,4095
5,2,122853,0.03,0.05,0.95,-1.24,4.32,0.35,3911,3600,4095,4095
5,2,122865,0,0.05,0.96,-1.78,4.91,1.25,3866,3583,4095,4095
5,2,122877,0.01,0.04,0.98,-2.08,5.45,1.52,3918,3583,4095,4095
5,2,122889,0.01,0.04,0.98,-1.59,5.07,1.06,3904,3583,4095,4095
5,2,122901,0.01,0.04,0.98,-2.52,3.48,1.12,3914,3583,4095,4095
5,2,122913,-0.01,0.04,0.98,-3.52,1.07,0.99,3920,3583,4095,4095
5,2,122925,0,0.04,0.98,-3.88,-1.34,0.35,3919,3583,4095,4095
5,2,122937,0.01,0.03,0.98,-2.98,-3.36,-1.06,3906,3583,4095,4095
5,2,122949,0,0.03,0.97,-1.97,-4.6,-1.23,3920,3579,4095,4095
5,2,122961,0.01,0.05,0.97,-1.56,-5.19,-1.68,3877,3583,4095,4095
5,2,122973,0.02,0.04,0.97,-1.39,-3.8,-1.9,3891,3581,4095,4095
5,2,122985,0.02,0.04,0.95,-1.93,-2.47,-0.89,3911,3583,4095,4095
5,2,122997,0.01,0.04,0.95,-2.45,-1.51,0.41,3915,3583,4095,4095
5,2,123009,0.04,0.04,0.97,-1.84,0.56,-0.16,3925,3582,4095,4095
5,2,123021,0.04,0.02,0.97,-0.77,2.4,-1.72,3914,3583,4095,4095
5,2,123033,0.04,0.03,0.96,0.22,2.84,-2.59,3919,3583,4095,4095
5,2,123045,0.02,0.05,0.96,0.07,3.4,-3.81,3917,3583,4095,4095
5,2,123057,-0.01,0.04,0.96,-0.63,2.9,-3.44,3894,3583,4095,4095
5,2,123069,0,0.04,0.97,-0.39,2.67,-1.68,3934,3583,4095,4095
5,2,123081,-0.01,0.04,0.97,-0.54,2.24,-0.68,3921,3583,4095,4095
5,2,123093,0,0.03,0.98,-0.62,0.66,-1.26,3906,3583,4095,4095
5,2,123105,0.02,0.03,0.98,-0.33,0.23,-2.66,3909,3583,4095,4095
5,2,123117,0.03,0.03,0.99,0.3,-0.28,-4.22,3907,3583,4095,4095
5,2,123129,0.01,0.04,0.98,0.73,-1.28,-5.5,3917,3583,4095,4095
5,2,123141,-0.01,0.04,0.97,1.32,-3.15,-5.58,3917,3583,4095,4095
5,2,123153,0,0.05,0.98,1.14,-4.98,-5.36,3917,3583,4095,4095
5,2,123165,-0.03,0.06,0.96,1.34,-5.86,-3.84,3887,3583,4095,4095
5,2,123177,0.01,0.06,0.96,0.42,-7.3,-2.83,3920,3583,4095,4095
5,2,123189,0.03,0.05,0.96,0.41,-5.6,-2.25,3911,3583,4095,4095
5,2,123201,0.04,0.06,0.95,0.51,-4.64,-2.25,3935,3583,4095,4095
5,2,123213,0.03,0.06,0.94,-0.39,-3.41,-2.54,3920,3581,4095,4095
5,2,123225,0.01,0.06,0.94,-0.27,-3.1,-1.18,3907,3583,4095,4095
5,2,123237,0,0.06,0.95,-0.63,-2.34,0.21,3904,3583,4095,4095
5,2,123249,0.01,0.06,0.95,-0.31,-0.95,1.61,3909,3583,4095,4095
5,2,123261,0.02,0.06,0.97,0.03,0.4,2.42,3916,3619,4095,4095
5,2,123273,0.02,0.07,0.95,-0.65,1.24,2.97,3914,3583,4095,4095
5,2,123285,0.01,0.05,0.96,-1.43,1.33,3.7,3888,3583,4095,4095
5,2,123297,0,0.03,0.96,-0.89,0.35,3.95,3917,3583,4095,4095
5,2,123309,-0.02,0.03,0.97,-0.2,0.27,2.88,3906,3598,4095,4095
5,2,123321,-0.02,0.04,0.95,-0.56,-1.82,2.16,3917,3583,4095,4095
5,2,123333,0.01,0.05,0.96,-0.51,-2.78,2.18,3916,3583,4095,4095
5,2,123345,0.03,0.03,0.97,-0.2,-3.31,1.77,3891,3583,4095,4095
5,2,123357,0.07,0.04,0.97,0.41,-2.22,0.06,3950,3583,4095,4095
5,2,123369,0.03,0.03,0.98,1.29,-1.73,-0.95,3920,3583,4095,4095
5,2,123381,0.08,0.01,0.97,2.16,-5.05,-1.23,3914,3583,4095,4095
5,2,123393,0.07,0.05,0.98,4.94,0.84,-9.33,3901,3583,4095,4095
5,2,123405,-0.02,-0.01,0.97,1.99,-3.16,-8.08,3890,3583,4095,4095
5,2,123417,0.01,0.06,0.97,0.91,-5.02,-6.08,3890,3583,4095,4095
5,2,123429,0.01,0.03,0.97,-0.85,-4.9,-9.14,3888,3579,4095,4095
5,2,123441,0,0.01,0.97,1.29,-5.5,-9.87,3920,3617,4095,4095
5,2,123453,-0.01,0.05,0.95,2.16,-6.76,-10.91,3906,3583,4095,4095
5,2,123465,-0.01,0.06,0.93,2.07,-5.42,-12.42,3874,3583,4095,4095
5,2,123477,-0.01,0.05,0.92,1.57,-6.29,-10.62,3895,3583,4095,4095
5,2,123489,0.04,0.07,0.94,2.06,-4.64,-9.73,3959,3583,4095,4095
5,2,123501,0.05,0.08,0.96,3.44,0.73,-8.77,3908,3583,4095,4095
5,2,123513,0.04,0.08,0.95,3.44,4.35,-6.01,3921,3578,4095,4095
5,2,123525,0.06,0.08,0.96,2.16,6.66,-2.95,3939,3598,4095,4095
5,2,123537,0.04,0.08,0.96,1.28,7.85,-2.3,3920,3582,4095,4095
5,2,123549,0.02,0.09,0.97,1.6,7.49,-2.17,3909,3583,4095,4095
5,2,123561,-0.03,0.07,0.94,-1.1,0.73,-1.41,3919,3583,4095,4095
5,2,123573,-0.02,0.06,0.94,-0.59,-3.91,-2.98,3899,3583,4095,4095
5,2,123585,0,0.06,0.92,-0.51,-5.89,-5.44,3938,3581,4095,4095
5,2,123597,0,0.06,0.94,0.7,-5.44,-6.86,3868,3583,4095,4095
5,2,123609,0.02,0.08,0.95,1.23,-5.04,-6.91,3911,3597,4095,4095
5,2,123621,0.04,0.1,0.95,1,-0.99,-7.18,3917,3583,4095,4095
5,2,123633,0,0.09,0.95,0.12,0.17,-3.76,3907,3583,4095,4095
5,2,123645,0.03,0.1,0.94,-0.75,0.47,0.32,3910,3583,4095,4095
5,2,123657,0.05,0.09,0.94,-0.65,1.82,0.47,3904,3583,4095,4095
5,2,123669,0.03,0.08,0.93,-1.07,1.16,1.28,3921,3583,4095,4095
5,2,123681,-0.01,0.09,0.94,-1.38,0.06,2.38,3909,3583,4095,4095
5,2,123693,-0.01,0.08,0.96,-0.92,1.4,2.68,3917,3575,4095,4095
5,2,123705,0.01,0.07,0.96,-0.36,2.84,3.38,3909,3583,4095,4095
5,2,123717,0.03,0.08,0.94,-1.06,3.1,4.27,3915,3583,4095,4095
5,2,123729,0.02,0.07,0.93,-2.45,0.76,5.09,3923,3583,4095,4095
5,2,123741,0.02,0.06,0.94,-2.07,0.5,4.33,3927,3583,4095,4095
5,2,123753,0.02,0.06,0.95,-0.68,2.03,2.07,3920,3583,4095,4095
5,2,123765,0.02,0.07,0.94,-0.45,3.39,2.3,3910,3583,4095,4095
5,2,123777,0.02,0.07,0.95,-1.39,4.59,4.19,3906,3583,4095,4095
5,2,123789,0.01,0.07,0.95,-2.6,6.15,5.64,3933,3583,4095,4095
5,2,123801,0.01,0.06,0.95,-2.89,6.17,6.8,3920,3583,4095,4095
5,2,123813,0.01,0.05,0.96,-2.27,6.27,7.61,3914,3583,4095,4095
5,2,123825,0,0.04,0.96,-1.76,5.49,7.14,3922,3583,4095,4095
5,2,123837,0.03,0.05,0.96,-0.71,4.95,4.83,3904,3583,4095,4095
5,2,123849,0.03,0.04,0.97,-0.68,5.86,1.99,3934,3583,4095,4095
5,2,123861,-0.01,0.01,0.96,1.57,2.81,2.13,3920,3583,4095,4095
5,2,123873,0.05,0.07,1,0.59,4.33,-2.16,3922,3583,4095,4095
5,2,123885,0.01,0.01,0.97,1.7,7.62,-5.61,3876,3583,4095,4095
5,2,123897,0,0.06,0.99,1.26,4.52,-2.52,3920,3583,4095,4095
5,2,123909,0,0.09,0.96,-2.01,1.77,-0.97,3908,3583,4095,4095
5,2,123921,0,0.05,0.98,-1.91,0.59,0.64,3874,3583,4095,4095
5,2,123933,0.02,0.04,0.99,-1.67,-1.16,0.09,3878,3583,4095,4095
5,2,123945,0.01,0.05,0.98,0.03,-0.32,-2.02,3915,3583,4095,4095
5,2,123957,0.01,0.06,0.97,0.38,-0.72,-2.65,3930,3583,4095,4095
5,2,123969,0.02,0.06,0.96,0.3,-0.76,-2.72,3910,3583,4095,4095
5,2,123981,0.01,0.07,0.97,-0.07,-0.49,-1.56,3868,3583,4095,4095
5,2,123993,0,0.07,0.97,-0.72,-0.78,0.3,3910,3583,4095,4095
5,2,124005,0,0.06,0.97,-1.2,-0.46,1.43,3898,3583,4095,4095
5,2,124017,0,0.06,0.96,-1.1,-0.73,1.55,3901,3583,4095,4095
5,2,124029,0.01,0.06,0.96,-1.43,-1.18,1.51,3899,3583,4095,4095
5,2,124041,0.02,0.05,0.95,-1.44,-1.77,1,3909,3583,4095,4095
5,2,124053,0.04,0.05,0.97,-0.56,-0.05,0.22,3898,3583,4095,4095
5,2,124065,0.05,0.05,0.97,0.33,2.56,-0.71,3921,3583,4095,4095
5,2,124077,0.02,0.07,0.96,-0.01,3.77,-1.26,3910,3583,4095,4095
5,2,124089,0.02,0.07,0.96,-0.86,2.4,-0.52,3922,3583,4095,4095
5,2,124101,0,0.07,0.96,-1.65,1.1,-0.81,3908,3583,4095,4095
5,2,124113,0.01,0.05,0.97,-1.32,2.47,-3.2,3890,3583,4095,4095
5,2,124125,-0.02,0.05,0.98,-1.06,-0.12,-0.37,3920,3583,4095,4095
5,2,124137,-0.02,0.08,0.95,-2.94,-2.83,1.03,3897,3583,4095,4095
5,2,124149,0.02,0.06,0.97,-2.89,-2.87,0.38,3907,3583,4095,4095
5,2,124161,0.04,0.05,0.98,-1.18,-2.18,0.04,3899,3581,4095,4095
5,2,124173,0.04,0.07,0.96,0.32,0.52,-0.88,3904,3583,4095,4095
5,2,124185,0.02,0.06,0.96,-0.37,1.14,-0.95,3913,3599,4095,4095
5,2,124197,0.02,0.07,0.97,-1.14,1.56,0.82,3913,3583,4095,4095
5,2,124209,-0.01,0.07,0.96,-2.07,1.46,1.95,3895,3583,4095,4095
5,2,124221,0,0.06,0.96,-2.16,0.79,3.19,3922,3583,4095,4095
5,2,124233,-0.01,0.05,0.96,-3.01,-0.47,3.64,3909,3583,4095,4095
5,2,124245,0,0.06,0.97,-2.19,-0.6,3.12,3882,3583,4095,4095
5,2,124257,-0.01,0.04,0.96,-2.3,-2.14,2.5,3919,3582,4095,4095
5,2,124269,0.03,0.06,0.97,-0.2,0.23,1.03,3909,3583,4095,4095
5,2,124281,0.02,0.02,0.93,-1.06,-1.34,0.45,3919,3583,4095,4095
5,2,124293,0.01,0.04,0.95,1.7,-1.07,-2.11,3905,3583,4095,4095
5,2,124305,0.04,0.07,0.98,0.28,2.08,-4.42,3917,3583,4095,4095
5,2,124317,0.02,0.07,0.97,0.01,3.71,-2.62,3920,3583,4095,4095
5,2,124329,0,0.05,0.97,-0.74,2.81,1.17,3920,3583,4095,4095
5,2,124341,0,0.07,0.96,-2.33,3.25,2.82,3907,3583,4095,4095
5,2,124353,0,0.04,0.98,-3.18,1.53,4.27,3915,3575,4095,4095
5,2,124365,0.02,0.04,0.97,-2.01,0.5,3.25,3914,3583,4095,4095
5,2,124377,0,0.02,0.99,0.16,-0.4,0.64,3931,3583,4095,4095
5,2,124389,0.02,0.04,0.98,1.48,-0.98,-2.26,3894,3583,4095,4095
5,2,124401,0.01,0.03,0.96,2.73,0.08,-5.07,3929,3583,4095,4095
5,2,124413,-0.01,0.06,0.98,1.05,-1.18,-3.91,3929,3583,4095,4095
5,2,124425,0.01,0.06,0.95,-1.39,-3.7,-1.5,3903,3583,4095,4095
5,2,124437,0.01,0.05,0.98,-0.81,-4.49,0.25,3905,3606,4095,4095
5,2,124449,0.05,0.06,1,-0.85,-1.79,-0.57,3899,3583,4095,4095
5,2,124461,0.03,0.05,0.97,-0.68,-1.01,-0.8,3909,3583,4095,4095
5,2,124473,0,0.05,0.97,-0.48,-1.57,0.3,3916,3583,4095,4095
5,2,124485,0.02,0.07,0.98,-0.89,-0.92,-0.17,3883,3580,4095,4095
5,2,124497,0.02,0.05,0.97,-0.65,-0.34,-0.62,3965,3583,4095,4095
5,2,124509,0,0.06,0.96,-0.33,-1.22,1.31,3910,3583,4095,4095
5,2,124521,0.01,0.05,0.97,-1.38,-1.47,1.31,3942,3583,4095,4095
5,2,124533,0.01,0.04,0.97,-1.81,-1.31,1.41,3925,3568,4095,4095
5,2,124545,0.01,0.04,0.96,-1.68,-1.79,1.02,3910,3583,4095,4095
5,2,124557,0.02,0.04,0.96,-1.18,-1.45,-0.19,3926,3583,4095,4095
5,2,124569,0.02,0.04,0.96,-0.88,-0.78,-0.19,3911,3583,4095,4095
5,2,124581,0.02,0.05,0.97,-0.4,-0.06,-0.8,3919,3597,4095,4095
5,2,124593,0.01,0.05,0.96,-0.23,1.11,-0.77,3911,3583,4095,4095
5,2,124605,0.01,0.06,0.97,0.04,0.38,0.57,3910,3583,4095,4095
5,2,124617,0.02,0.07,0.96,-0.68,0.12,-0.14,3911,3583,4095,4095
5,2,124629,0.01,0.05,0.97,-1.55,-0.86,0.28,3935,3583,4095,4095
5,2,124641,0.01,0.05,0.97,-1.82,-2.03,0.21,3904,3583,4095,4095
5,2,124653,0.01,0.05,0.96,-1.78,-2,-0.43,3919,3583,4095,4095
5,2,124665,0.01,0.04,0.96,-1.27,-2.03,-0.05,3907,3583,4095,4095
5,2,124677,0.02,0.05,0.96,-0.88,-1.28,-0.05,3910,3583,4095,4095
5,2,124689,0.02,0.05,0.97,-0.69,-0.41,0.13,3917,3603,4095,4095
5,2,124701,0.03,0.05,0.97,0.01,0.43,-0.02,3939,3583,4095,4095
5,2,124713,0.02,0.05,0.97,-0.48,0.78,-0.13,3923,3583,4095,4095
5,2,124725,0,0.05,0.96,-1.18,-0.46,0.07,3911,3583,4095,4095
6,2,288165,-0.04,0.16,0.94,-1.75,2.3,2.56,3916,3903,4095,4095
6,2,288178,0,0.16,0.95,-2.59,0.47,4.45,3904,3899,4095,4095
6,2,288189,0.06,0.15,0.96,-3.01,-2.18,2.79,3911,3894,4095,4095
6,2,288201,0.06,0.15,0.97,-1.56,-2.17,1.06,3872,3891,4095,4095
6,2,288213,0.02,0.15,0.94,-1.93,-0.54,0.38,3872,3919,4095,4095
6,2,288225,0.04,0.14,0.94,-1.33,0.75,-0.13,3938,3898,4095,4095
6,2,288237,0.02,0.14,0.96,-1.36,1.43,0.56,3911,3909,4095,4095
6,2,288249,0.04,0.14,0.96,-1.62,0.66,-1.07,3920,3901,4095,4095
6,2,288261,0.02,0.14,0.95,-0.94,1.2,-1.82,3911,3903,4095,4095
6,2,288273,0.02,0.14,0.95,-0.36,0.82,-2.33,3922,3899,4095,4095
6,2,288285,0.05,0.14,0.96,0.71,0.26,-3.58,3930,3895,4095,4095
6,2,288297,0.05,0.15,0.96,1.25,1.33,-4.74,3914,3901,4095,4095
6,2,288309,0.04,0.17,0.95,0.62,1.89,-4.22,3903,3901,4095,4095
6,2,288321,0.02,0.16,0.95,-0.52,3.1,-3.3,3915,3911,4095,4095
6,2,288333,0.02,0.15,0.95,-1.06,3.63,-3.35,3915,3897,4095,4095
6,2,288345,0,0.14,0.95,-1.21,3.14,-2.48,3895,3899,4095,4095
6,2,288357,0.02,0.14,0.95,-0.02,2.61,-3.32,3934,3904,4095,4095
6,2,288369,0.02,0.15,0.95,0.56,3.56,-2.16,3873,3898,4095,4095
6,2,288381,0.05,0.16,0.95,0.51,4.01,-2.34,3919,3903,4095,4095
6,2,288393,0.06,0.17,0.96,-0.71,4.73,-3.87,3913,3891,4095,4095
6,2,288405,0.02,0.15,0.96,-0.69,6.2,-3.61,3904,3897,4095,4095
6,2,288417,0.01,0.16,0.97,-0.13,5.48,-2.48,3906,3894,4095,4095
6,2,288429,-0.01,0.14,0.97,-1.03,5.78,-3.32,3921,3893,4095,4095
6,2,288441,0.02,0.16,0.96,-0.31,4.41,-4.25,3916,3888,4095,4095
6,2,288453,0.01,0.14,0.97,-0.01,3.13,-2.36,3923,3903,4095,4095
6,2,288465,0,0.18,0.95,-0.07,2.73,-1.14,3910,3894,4095,4095
6,2,288477,-0.01,0.16,0.98,-1.36,1.05,0.12,3920,3891,4095,4095
6,2,288489,0.01,0.16,0.97,-2.04,-0.49,0.59,3927,3895,4095,4095
6,2,288501,0.01,0.15,0.98,-1.47,-0.64,0.04,3911,3895,4095,4095
6,2,288513,0.01,0.15,0.97,-0.86,-2.25,0.03,3911,3899,4095,4095
6,2,288525,0.01,0.15,0.98,-0.37,-3.57,-0.23,3922,3901,4095,4095
6,2,288537,0.01,0.16,0.96,-0.02,-4.8,0.59,3905,3897,4095,4095
6,2,288549,0,0.16,0.97,-0.39,-5.48,2.13,3903,3895,4095,4095
6,2,288561,0.02,0.16,0.97,-0.69,-6.09,2.28,3920,3895,4095,4095
6,2,288573,0.03,0.16,0.97,-1.01,-6.15,1.37,3914,3894,4095,4095
6,2,288585,0.03,0.15,0.96,-1.07,-5.77,0.57,3887,3902,4095,4095
6,2,288597,0.02,0.15,0.95,-0.57,-5.18,1.9,3899,3891,4095,4095
6,2,288609,0.02,0.16,0.95,-0.92,-5.59,2.16,3922,3900,4095,4095
6,2,288621,0.02,0.15,0.94,-1.47,-5.63,1.99,3873,3898,4095,4095
6,2,288633,0.03,0.14,0.95,-1.2,-5.18,1.19,3909,3899,4095,4095
6,2,288645,0.03,0.14,0.94,-0.68,-4.43,0.32,3911,3902,4095,4095
6,2,288657,0.02,0.16,0.94,-0.31,-3.65,0.03,3910,3904,4095,4095
6,2,288669,0.02,0.15,0.95,-0.01,-4.05,0.01,3907,3893,4095,4095
6,2,288681,0.03,0.17,0.94,-0.28,-3.8,0.28,3909,3893,4095,4095
6,2,288693,0.04,0.17,0.94,-0.56,-2.8,0.62,3907,3903,4095,4095
6,2,288705,0.04,0.17,0.94,-1.24,-2.6,2.51,3910,3887,4095,4095
6,2,288717,0.02,0.16,0.94,-2.49,-2.12,4.01,3907,3899,4095,4095
6,2,288729,0,0.14,0.94,-2.92,-2.17,3.86,3907,3899,4095,4095
6,2,288741,0.03,0.15,0.96,-2.25,-0.57,3.22,3905,3898,4095,4095
6,2,288753,0.03,0.13,0.96,-1.68,-0.37,1.69,3909,3899,4095,4095
6,2,288765,0.05,0.16,0.94,-0.88,-0.37,0.28,3907,3899,4095,4095
6,2,288777,0.02,0.14,0.97,-0.86,2.43,-4.17,3920,3895,4095,4095
6,2,288789,0.03,0.12,0.94,-0.75,0.76,-1.33,3904,3899,4095,4095
6,2,288801,0.05,0.15,0.97,-0.49,1.78,-0.88,3940,3895,4095,4095
6,2,288813,0.03,0.15,0.96,-0.31,2.87,-4.05,3910,3899,4095,4095
6,2,288825,0.01,0.14,0.97,-0.56,0.96,-3.76,3903,3898,4095,4095
6,2,288837,-0.01,0.15,0.96,-1.3,-1.83,-2.54,3902,3897,4095,4095
6,2,288849,0,0.14,0.96,-0.81,-2.67,-2.22,3892,3890,4095,4095
6,2,288861,0.01,0.15,0.96,-0.37,-4.18,-2.07,3909,3893,4095,4095
6,2,288873,0.04,0.16,0.95,-0.23,-5.36,-2.28,3909,3893,4095,4095
6,2,288885,0.03,0.18,0.92,-1.33,-5.73,-2.05,3902,3898,4095,4095
6,2,288897,0.04,0.18,0.92,-2.85,-5.24,-1.09,3926,3898,4095,4095
6,2,288909,0.04,0.16,0.91,-3.46,-2.15,0.21,3911,3900,4095,4095
6,2,288921,0.05,0.14,0.93,-3.07,1.05,0.62,3931,3896,4095,4095
6,2,288933,0.08,0.13,0.94,-2.02,4.04,-1.76,3906,3897,4095,4095
6,2,288945,0.06,0.12,0.95,0.35,6.81,-4.37,3937,3898,4095,4095
6,2,288957,0.05,0.14,0.94,2.39,8.84,-6.56,3942,3901,4095,4095
6,2,288969,0.03,0.15,0.95,2.67,9.89,-6.34,3919,3897,4095,4095
6,2,288981,0.01,0.17,0.94,1.15,9.28,-4.45,3906,3895,4095,4095
6,2,288993,-0.01,0.18,0.95,-0.48,8.58,-3.03,3920,3914,4095,4095
6,2,289005,-0.02,0.16,0.95,-1.12,6.79,-1.26,3920,3890,4095,4095
6,2,289017,-0.02,0.15,0.98,-0.3,2.21,0.68,3914,3877,4095,4095
6,2,289029,-0.01,0.14,1.01,1.4,1.19,-1.64,3914,3902,4095,4095
6,2,289041,0.02,0.15,0.99,4.22,-2.31,-3.26,3920,3902,4095,4095
6,2,289053,-0.03,0.14,1.04,6.28,-3.96,-5.7,3911,3890,4095,4095
6,2,289065,-0.01,0.16,0.99,4.47,-9.04,-2.95,3910,3900,4095,4095
6,2,289077,-0.01,0.18,0.98,3.84,-10.32,-1.07,3899,3902,4095,4095
6,2,289089,0,0.18,0.96,1.86,-13.62,0.94,3915,3898,4095,4095
6,2,289101,-0.01,0.14,0.94,-1.61,-15.13,1.34,3920,3891,4095,4095
6,2,289113,0.02,0.15,0.93,-0.31,-15.91,2.56,3923,3901,4095,4095
6,2,289125,0.02,0.12,0.93,-0.2,-15.24,3.43,3938,3903,4095,4095
6,2,289137,0.03,0.13,0.92,0.93,-12.93,1.4,3915,3891,4095,4095
6,2,289149,0.05,0.16,0.92,0.61,-11.74,1,3867,3902,4095,4095
6,2,289161,0.05,0.14,0.92,1.4,-8,-0.07,3893,3901,4095,4095
6,2,289173,0.05,0.14,0.89,1.63,-6.02,-2.92,3902,3892,4095,4095
6,2,289185,0.08,0.15,0.9,1.6,-3.34,-2.78,3918,3885,4095,4095
6,2,289197,0.09,0.19,0.89,1.77,0.99,-2.63,3866,3898,4095,4095
6,2,289209,0.08,0.19,0.88,-0.27,5.54,-2.85,3930,3895,4095,4095
6,2,289221,0.07,0.17,0.9,-1.85,9.45,-1.97,3920,3895,4095,4095
6,2,289233,0.05,0.16,0.9,-2.95,12.58,-1.97,3913,3890,4095,4095
6,2,289245,0.02,0.15,0.93,-2.74,14.69,-3.27,3897,3904,4095,4095
6,2,289257,0.01,0.15,0.94,-2.01,14.4,-4.28,3911,3895,4095,4095
6,2,289269,-0.01,0.14,0.94,-0.66,14.06,-4.95,3920,3899,4095,4095
6,2,289281,0.02,0.16,0.95,-0.95,12.15,-4.81,3906,3899,4095,4095
6,2,289293,0.02,0.15,0.99,-0.81,9.85,-4.86,3918,3901,4095,4095
6,2,289305,0.02,0.16,1.01,0.3,10.67,-6.02,3903,3902,4095,4095
6,2,289317,0,0.17,0.97,-1.23,8.35,-5.94,3918,3904,4095,4095
6,2,289329,-0.02,0.16,0.98,-0.28,6.85,-3.39,3881,3895,4095,4095
6,2,289341,-0.02,0.17,1,-0.19,2.11,-1.44,3869,3915,4095,4095
6,2,289353,-0.04,0.17,1,0.36,-2.14,0.27,3922,3895,4095,4095
6,2,289365,-0.06,0.17,0.99,0.3,-7.62,2.25,3893,3920,4095,4095
6,2,289377,-0.03,0.17,0.98,-0.49,-11.92,4.39,3885,3903,4095,4095
6,2,289389,-0.01,0.18,0.98,-0.77,-14.6,4.42,3909,3912,4095,4095
6,2,289401,0.01,0.17,0.96,-1.39,-16.95,5.2,3918,3919,4095,4095
6,2,289413,0.02,0.16,0.94,-1.52,-18.12,5.81,3940,3895,4095,4095
6,2,289425,0.06,0.17,0.92,-1.01,-16.96,5.8,3929,3902,4095,4095
6,2,289437,0.08,0.16,0.91,-2.66,-14.55,4.28,3920,3894,4095,4095
6,2,289449,0.08,0.15,0.89,-1.04,-10.22,3.44,3920,3899,4095,4095
6,2,289461,0.08,0.13,0.89,-0.57,-6.58,1.63,3942,3899,4095,4095
6,2,289473,0.07,0.14,0.88,0.09,-2.57,0.76,3941,3889,4095,4095
6,2,289485,0.09,0.15,0.89,1.02,1.25,-1.76,3869,3893,4095,4095
6,2,289497,0.09,0.16,0.9,0.77,6.46,-4.85,3903,3895,4095,4095
6,2,289509,0.06,0.17,0.9,-0.62,10.06,-3.99,3919,3895,4095,4095
6,2,289521,0.07,0.16,0.92,-1.73,12.81,-4.81,3909,3899,4095,4095
6,2,289533,0.06,0.16,0.93,-1.76,15.1,-6.49,3931,3905,4095,4095
6,2,289545,0.05,0.15,0.94,-1.01,17.27,-7.41,3918,3895,4095,4095
6,2,289557,0.03,0.16,0.95,-0.68,16.58,-7.7,3902,3891,4095,4095
6,2,289569,0.01,0.17,0.97,-0.63,18.55,-9.5,3982,3894,4095,4095
6,2,289581,0.01,0.16,0.97,-1.88,15.98,-8.2,3909,3895,4095,4095
6,2,289593,0.01,0.2,0.97,-0.54,15.04,-8.2,3920,3902,4095,4095
6,2,289605,-0.05,0.14,1.01,1.11,12.91,-9.79,3920,3899,4095,4095
6,2,289617,-0.02,0.17,0.99,-0.33,6,-5.62,3910,3902,4095,4095
6,2,289629,0,0.2,1.02,-0.19,2.2,-4.42,3926,3888,4095,4095
6,2,289641,-0.02,0.19,1.01,-0.23,-0.26,-4.45,3909,3904,4095,4095
6,2,289653,-0.03,0.18,0.99,-1.99,-5.73,-0.59,3881,3893,4095,4095
6,2,289665,-0.02,0.18,0.97,-1.87,-9.88,2.13,3935,3893,4095,4095
6,2,289677,-0.03,0.16,0.96,-1.46,-11.92,3.95,3905,3901,4095,4095
6,2,289689,-0.02,0.16,0.94,-0.72,-13.73,6.16,3895,3897,4095,4095
6,2,289701,-0.05,0.16,0.95,0.28,-14.9,5.32,3897,3899,4095,4095
6,2,289713,-0.01,0.17,0.93,-1.07,-14.86,7,3906,3897,4095,4095
6,2,289725,0.06,0.18,0.96,-1.62,-15.85,6.41,3915,3902,4095,4095
6,2,289737,0.06,0.17,0.93,-2.62,-15.24,2.9,3873,3899,4095,4095
6,2,289749,0.03,0.17,0.92,-1.62,-12.92,4.22,3893,3898,4095,4095
6,2,289761,0.05,0.18,0.92,-2.43,-13.21,5.11,3917,3904,4095,4095
6,2,289773,0.11,0.17,0.94,-2.78,-10.49,3.54,3919,3901,4095,4095
6,2,289785,0.08,0.17,0.95,-2.81,-6,-0.45,3923,3895,4095,4095
6,2,289797,0.02,0.15,0.95,-2.45,-4.55,0.18,3907,3900,4095,4095
6,2,289809,0.01,0.15,0.93,-3.2,-4.93,1.14,3916,3901,4095,4095
6,2,289821,0.06,0.2,1,-3.27,-7.09,0.41,3895,3896,4095,4095
6,2,289833,0.03,0.18,0.96,-1.3,-7.7,-2.14,3898,3899,4095,4095
6,2,289845,-0.01,0.14,0.91,-0.13,-8.76,-2.28,3875,3905,4095,4095
6,2,289857,0.04,0.15,0.94,0.93,-9.77,-2.23,3904,3889,4095,4095
6,2,289869,0.07,0.17,0.92,0.33,-12,-2.83,3919,3902,4095,4095
6,2,289881,0.04,0.18,0.91,1.66,-8.89,-1.85,3762,3897,4095,4095
6,2,289893,0.04,0.18,0.9,1.15,-6.72,-0.92,3653,3904,4095,4095
6,2,289905,0.05,0.18,0.89,0.41,-4.83,0.97,3917,3903,4095,4095
6,2,289917,0.06,0.17,0.88,-0.14,-3.18,2.28,3891,3900,4095,4095
6,2,289929,0.07,0.16,0.89,-0.46,-0.25,1.28,3757,3900,4095,4095
6,2,289941,0.05,0.15,0.89,-0.34,2.08,0.1,3910,3888,4095,4095
6,2,289953,0.06,0.15,0.88,0.18,4.21,-0.3,3754,3908,4095,4095
6,2,289965,0.05,0.15,0.89,-0.3,6.88,-2.11,3667,3901,4095,4095
6,2,289977,0.02,0.14,0.89,0.38,8.3,-2.22,3791,3897,4095,4095
6,2,289989,0.03,0.15,0.91,0.25,9.14,-2.46,3759,3901,4095,4095
6,2,290001,0.01,0.15,0.91,0.91,10.08,-4.07,3570,3895,4095,4095
6,2,290013,0.03,0.15,0.93,0.64,9.34,-4.26,2384,3903,4095,4095
6,2,290025,0.03,0.16,0.93,0.19,8.75,-5.21,3857,3904,4095,4095
6,2,290037,0,0.17,0.93,-0.36,7.48,-5.46,3888,3899,4095,4095
6,2,290049,-0.01,0.16,0.93,-0.59,5.43,-3.2,3866,3894,4095,4095
6,2,290061,-0.01,0.17,0.93,-0.11,4.38,-1,3901,3895,4095,4095
6,2,290073,-0.01,0.16,0.93,-0.92,3.19,-0.25,3856,3897,4095,4095
6,2,290085,0.01,0.16,0.95,-0.77,3.1,-0.11,3915,3894,4095,4095
6,2,290097,0,0.15,0.94,-0.69,2.32,-1.09,3903,3903,4095,4095
6,2,290109,0.02,0.16,0.94,-0.74,2.15,-2.51,3907,3903,4095,4095
6,2,290121,0.03,0.17,0.93,-0.6,0.06,-4.65,3906,3899,4095,4095
6,2,290133,0.06,0.15,0.94,-0.34,-1.76,-3.76,3917,3891,4095,4095
6,2,290145,0.08,0.2,0.92,1.63,2.99,-5.56,3902,3902,4095,4095
6,2,290157,0.05,0.19,0.9,-0.94,4.41,-4.48,3937,3893,4095,4095
6,2,290169,0.03,0.19,0.89,-4.22,4.85,-2.23,3907,3899,4095,4095
6,2,290181,0.01,0.15,0.9,-5.99,7.11,-1.17,3882,3902,4095,4095
7,2,322881,-0.11,0.09,1.03,-5.59,3.48,7.44,3961,3720,4095,4095
7,2,322893,-0.12,0.05,1.05,-6.01,1.14,10.86,3950,3726,4095,4095
7,2,322905,-0.07,0.05,1.11,-3.18,-1.3,10.71,3959,3728,4095,4095
7,2,322917,-0.09,0.03,1.05,-1.3,-6.7,7.66,3977,3723,4095,4095
7,2,322929,-0.02,0.07,1.05,2.48,-12.96,12.67,3941,3722,4095,4095
7,2,322941,-0.03,0.04,1.02,4.56,-15.94,11.89,3970,3722,4095,4095
7,2,322953,0.1,0.14,1.03,6.54,-18.98,8.74,3957,3728,4095,4095
7,2,322965,-0.01,0.04,0.97,6.61,-18.55,9.92,3981,3727,4095,4095
7,2,322977,0.05,0.13,0.98,4.88,-19.83,11.89,3952,3724,4095,4095
7,2,322989,0.04,0.07,0.94,4.47,-17.38,17.96,4000,3722,4095,4095
7,2,323001,0.04,0.12,0.92,1.9,-15.34,22.06,3983,3723,4095,4095
7,2,323013,0.09,0.08,0.97,-2.8,-11.59,23.12,3969,3728,4095,4095
7,2,323025,0.13,0.08,0.94,-9.41,-11.56,21.96,3968,3729,4095,4095
7,2,323037,0.15,0.04,0.99,-12.77,-7.22,18.79,3975,3728,4095,4095
7,2,323049,0.13,0,1,-15.26,-2.41,11.54,3975,3735,4095,4095
7,2,323061,0.11,-0.05,1.03,-12.52,4.67,6.35,3966,3739,4095,4095
7,2,323073,0.05,-0.08,1.04,-7.62,11.42,0.13,3979,3733,4095,4095
7,2,323085,0.03,-0.04,1.04,-2.48,16,-6.42,3982,3727,4095,4095
7,2,323097,-0.04,-0.05,1.04,2.41,13.39,-11.96,3975,3727,4095,4095
7,2,323109,-0.06,-0.02,1.05,4.88,8.33,-13.9,3998,3728,4095,4095
7,2,323121,-0.08,0,1.05,6.7,3.6,-16.46,3981,3729,4095,4095
7,2,323133,-0.09,0,1.05,9.19,-1.19,-16.68,3983,3731,4095,4095
7,2,323145,-0.08,0.01,1.05,11.29,-5.68,-12.62,3988,3731,4095,4095
7,2,323157,-0.07,0.05,1.04,12.36,-9.62,-9.32,3979,3731,4095,4095
7,2,323169,-0.03,0.09,1.02,11.32,-11.05,-7.49,3977,3732,4095,4095
7,2,323181,-0.05,0.14,0.95,7.38,-15.16,-5.41,3998,3732,4095,4095
7,2,323193,-0.01,0.09,1,2.82,-17.41,-2.37,3982,3730,4095,4095
7,2,323205,0.05,0.09,1.02,-0.83,-18.05,1.84,3985,3728,4095,4095
7,2,323217,0.04,0.07,1,-0.63,-14.25,4.76,3973,3731,4095,4095
7,2,323229,0.05,0.07,0.99,0.13,-10.22,6.42,3978,3737,4095,4095
7,2,323241,0.05,0.06,0.99,-1.55,-8.61,7.37,3972,3728,4095,4095
7,2,323253,0.03,0.06,0.97,-2.98,-6.92,8.27,3968,3731,4095,4095
7,2,323265,0.02,0.05,0.98,-4.49,-5.02,8.01,3983,3728,4095,4095
7,2,323277,0,0.02,0.99,-4.68,-4.7,7.15,3997,3726,4095,4095
7,2,323289,0,0.03,1,-3.99,-3.99,5.4,3964,3728,4095,4095
7,2,323301,-0.03,-0.01,1,-2.49,-5.1,5.05,3933,3731,4095,4095
7,2,323313,-0.03,0,1,-0.83,-6.8,7.11,3971,3735,4095,4095
7,2,323325,0,0.03,1,-0.56,-7.86,4.74,3972,3729,4095,4095
7,2,323337,0,0.03,0.97,-1.36,-10.06,2.8,3953,3733,4095,4095
7,2,323349,0.03,0.05,0.98,-2.97,-11.96,1.99,3929,3730,4095,4095
7,2,323361,0.04,0.05,0.99,-4.05,-9.56,-0.72,3967,3728,4095,4095
7,2,323373,0.03,0.01,1,-3.62,-7.63,-1.27,3974,3733,4095,4095
7,2,323385,0.02,0.01,0.98,-1.15,-7.18,-0.01,3955,3734,4095,4095
7,2,323397,0,0.02,0.99,0.59,-6.93,1.52,3968,3729,4095,4095
7,2,323409,0,0.04,0.98,1.6,-7.8,2.01,3964,3731,4095,4095
7,2,323421,-0.01,0.04,0.98,0.86,-10.47,2.83,3933,3731,4095,4095
7,2,323433,0.03,0.07,1.04,3.08,-8.35,2.39,3974,3741,4095,4095
7,2,323445,-0.02,0.06,0.94,-1.38,-13.04,3.46,3975,3725,4095,4095
7,2,323457,-0.04,0.03,0.92,-1.75,-17.12,9.32,3967,3729,4095,4095
7,2,323469,-0.04,0.02,0.95,-0.69,-13.22,15.93,3952,3744,4095,4095
7,2,323481,-0.01,0.01,0.94,-1.32,-19.53,17.61,3981,3734,4095,4095
7,2,323493,0.03,0.02,0.96,-1.43,-17.97,14.77,3957,3723,4095,4095
7,2,323505,-0.01,0.01,0.97,-1.58,-17.05,17.37,3968,3728,4095,4095
7,2,323517,0.04,0.04,0.91,-7.65,-17.96,19.8,3949,3723,4095,4095
7,2,323529,0.05,0.05,0.95,-10.25,-7.47,15.72,3984,3728,4095,4095
7,2,323541,0.03,0.01,0.9,-15.04,-10.92,10.39,3977,3729,4095,4095
7,2,323553,0.01,-0.05,0.92,-16.19,-11.54,10.07,4013,3730,4095,4095
7,2,323565,-0.02,-0.07,0.91,-13.68,-13.5,10.27,3988,3731,4095,4095
7,2,323577,0,-0.07,0.92,-11.12,-13.01,8.41,3988,3726,4095,4095
7,2,323589,-0.02,-0.06,0.9,-9.18,-10.35,6.12,3983,3727,4095,4095
7,2,323601,0.02,-0.03,0.89,-9.12,-7.38,4.8,3933,3754,4095,4095
7,2,323613,0.05,0,0.88,-11.91,-7.88,0.93,3947,3729,4095,4095
7,2,323625,0.06,-0.03,0.88,-12.46,-8.69,-6.01,3965,3727,4095,4095
7,2,323637,0.09,-0.05,0.91,-7.24,-8.95,-12.63,3998,3734,4095,4095
7,2,323649,0.08,-0.06,0.91,-1,-7.57,-17.62,3984,3743,4095,4095
7,2,323661,0.1,-0.06,0.91,6.61,-2.2,-20.16,4001,3730,4095,4095
7,2,323673,0.11,0,0.92,11.43,3.49,-21.39,3953,3728,4095,4095
7,2,323685,0.07,0.04,0.92,10.24,7.01,-20.98,3982,3731,4095,4095
7,2,323697,0.04,0.08,0.87,3.95,9.68,-18.77,3995,3760,4095,4095
7,2,323709,0.01,0.09,0.89,-2.66,12.93,-15.67,3934,3729,4095,4095
7,2,323721,-0.02,0.06,0.91,-7.01,16,-14.36,3969,3731,4095,4095
7,2,323733,-0.01,0,0.95,-7.41,16.15,-13.81,3931,3730,4095,4095
7,2,323745,-0.03,-0.04,0.99,-4.17,13.63,-13.61,3973,3734,4095,4095
7,2,323757,-0.04,-0.01,1,-0.36,12.73,-14.42,3994,3730,4095,4095
7,2,323769,-0.04,0.02,0.98,0.32,9.95,-15.12,3980,3729,4095,4095
7,2,323781,-0.02,0.06,0.98,-1.1,5.3,-15.99,3971,3729,4095,4095
7,2,323793,-0.03,0.07,0.97,-3.26,3.72,-18.48,3983,3743,4095,4095
7,2,323805,-0.08,0.05,0.96,-4.46,1.46,-17.41,3996,3729,4095,4095
7,2,323817,-0.09,0.02,0.95,-3.62,-3.38,-10.95,3963,3728,4095,4095
7,2,323829,-0.04,0.04,0.98,0.3,-5.96,-7.35,3974,3737,4095,4095
7,2,323841,-0.09,0.07,0.94,-1.3,-10.09,-11.53,3971,3734,4095,4095
7,2,323853,-0.01,0.04,0.94,1.4,-14.29,-3.2,3974,3735,4095,4095
7,2,323865,0.02,0.13,0.91,-4.43,-18.81,2.99,3977,3728,4095,4095
7,2,323877,0.04,0.07,0.96,-4.62,-18.63,3.67,3969,3728,4095,4095
7,2,323889,0.06,0.08,0.91,-6.48,-20.38,5.89,3969,3731,4095,4095
7,2,323901,0.06,0.07,0.92,-6.05,-17.88,9.35,3978,3731,4095,4095
7,2,323913,0.03,0.05,0.91,-4.52,-13.86,12.48,3971,3728,4095,4095
7,2,323925,0.02,0.07,0.89,-5.32,-9.05,15.15,3963,3738,4095,4095
7,2,323937,-0.01,0.04,0.9,-6.16,-2.43,15.86,3962,3732,4095,4095
7,2,323949,0.01,0.03,0.87,-8.54,-3.07,15.54,3967,3733,4095,4095
7,2,323961,0.04,0,0.87,-9.78,-9.44,13.32,3997,3731,4095,4095
7,2,323973,0.06,0.01,0.87,-9.76,-11.34,4.91,3967,3735,4095,4095
7,2,323985,0.03,-0.01,0.88,-6.88,-6.23,0.45,3983,3731,4095,4095
7,2,323997,0.05,-0.04,0.89,-2.27,-4.58,1.28,3975,3728,4095,4095
7,2,324009,0.06,-0.01,0.86,0.53,-1.94,-2.88,3979,3729,4095,4095
7,2,324021,0.06,0,0.89,2.38,3.63,-5.21,3964,3734,4095,4095
7,2,324033,0.08,0.02,0.88,3.73,6.64,-4.6,3994,3729,4095,4095
7,2,324045,0.06,0.02,0.89,1.29,10.03,-6.02,3973,3729,4095,4095
7,2,324057,0.04,0.03,0.88,0.1,7.72,-7.68,3931,3729,4095,4095
7,2,324069,0.04,0.02,0.92,-0.52,7.88,-9.68,3958,3734,4095,4095
7,2,324081,-0.03,0.03,0.9,-0.52,9.16,-10.77,3950,3725,4095,4095
7,2,324093,-0.03,0.03,0.91,0.16,12.11,-8.89,3962,3728,4095,4095
7,2,324105,-0.04,0.01,0.91,-0.49,10.84,-7.44,3984,3735,4095,4095
7,2,324117,-0.02,0.03,0.91,0.47,5.92,-7.99,3975,3729,4095,4095
7,2,324129,-0.05,0.05,0.92,0.28,1.19,-6.89,3958,3730,4095,4095
7,2,324141,-0.03,0.06,0.93,0.96,1.4,-4.52,3983,3728,4095,4095
7,2,324153,0.02,0.07,0.93,1.8,2.46,-2.97,3971,3727,4095,4095
7,2,324165,0.07,0.06,0.93,3.29,-1.12,-3.9,3985,3729,4095,4095
7,2,324177,0,0.07,0.88,-0.3,-5.39,-8.42,3970,3729,4095,4095
7,2,324189,0.01,0.02,1,3.87,-1.68,-2.91,3984,3738,4095,4095
7,2,324201,0.05,0.08,0.92,0.12,-4.6,2.59,3956,3733,4095,4095
7,2,324213,0.04,0.08,0.92,-1.65,0.27,1.05,3966,3729,4095,4095
7,2,324225,0.04,0.06,0.91,-4.02,3.1,-0.51,3974,3739,4095,4095
7,2,324237,0.01,0.04,0.94,-6.36,2.11,2.64,3973,3738,4095,4095
7,2,324249,0.01,0.03,0.93,-6.14,1.68,0.51,3966,3728,4095,4095
7,2,324261,0,0.02,0.93,-5.5,2.47,-2.51,3952,3728,4095,4095
7,2,324273,-0.03,0,0.92,-2.37,1.65,-3.26,3967,3733,4095,4095
7,2,324285,-0.02,0.01,0.92,0.76,-0.38,-2.92,3971,3741,4095,4095
7,2,324297,0.01,0.02,0.93,4.04,-2.64,-4.02,3979,3729,4095,4095
7,2,324309,0.03,0.06,0.92,5.15,-3.48,-5.2,3967,3733,4095,4095
7,2,324321,0.02,0.08,0.91,3.46,-3.18,-3.38,3977,3735,4095,4095
7,2,324333,0.02,0.09,0.9,0.65,-2.31,-0.72,3975,3727,4095,4095
7,2,324345,0,0.08,0.9,-2.4,-3.02,1.72,3967,3728,4095,4095
7,2,324357,0,0.07,0.9,-4.72,-4.55,4.39,3971,3734,4095,4095
7,2,324369,0.01,0.06,0.9,-6.51,-5.02,4.45,4000,3738,4095,4095
7,2,324381,0.01,0.05,0.92,-7.27,-2.54,4.45,3984,3731,4095,4095
7,2,324393,0.02,0.03,0.93,-6.72,0.27,4.65,3966,3731,4095,4095
7,2,324405,0.02,0.01,0.92,-4.39,1.31,3.9,3970,3733,4095,4095
7,2,324417,0.01,0.01,0.92,-1.76,0.08,2.03,3974,3729,4095,4095
7,2,324429,0.02,0.02,0.92,1.4,-2.49,0.77,3967,3735,4095,4095
7,2,324441,0.04,0.05,0.93,3.03,-3.67,-0.49,3980,3728,4095,4095
7,2,324453,0.04,0.06,0.93,3.49,-3.79,-1.04,4002,3735,4095,4095
7,2,324465,0.02,0.07,0.92,3.44,-3.8,-0.07,3981,3732,4095,4095
7,2,324477,0.01,0.07,0.91,2.32,-5.68,2.41,3997,3728,4095,4095
7,2,324489,0.05,0.1,0.92,1.75,-3.33,4.18,3989,3726,4095,4095
7,2,324501,-0.02,0.07,0.88,-0.98,-5.33,6.7,3930,3723,4095,4095
7,2,324513,-0.03,0.02,0.91,-1.55,-7.36,10.59,3974,3724,4095,4095
7,2,324525,0,0.02,0.96,-1.68,-7.5,11.03,3967,3723,4095,4095
7,2,324537,-0.01,0,0.94,0.9,-6.86,11.2,3968,3725,4095,4095
7,2,324549,-0.01,0.03,0.94,1.69,-8.8,11.7,3965,3728,4095,4095
7,2,324561,-0.03,0.02,0.93,0.77,-10.55,9.74,3944,3723,4095,4095
7,2,324573,-0.04,0.02,0.92,-0.43,-14.22,9.41,3952,3728,4095,4095
7,2,324585,-0.06,0.02,0.89,-0.11,-16.55,11.63,3982,3728,4095,4095
7,2,324597,-0.06,0.03,0.87,-1.5,-19.89,13.6,3979,3723,4095,4095
7,2,324609,-0.02,-0.01,0.88,-0.13,-19.96,17.35,3946,3721,4095,4095
7,2,324621,-0.02,-0.01,0.88,0.1,-18.52,19.48,3959,3723,4095,4095
7,2,324633,0.01,-0.01,0.91,0.74,-15.57,20.21,3971,3721,4095,4095
7,2,324645,0,0.01,0.9,1.72,-14.25,18.96,3978,3723,4095,4095
7,2,324657,0.06,0.02,0.94,2.64,-15.34,13.57,3975,3719,4095,4095
7,2,324669,0.06,0.03,0.87,-0.05,-18.09,7.75,3969,3726,4095,4095
7,2,324681,0.01,0.01,0.83,-4.07,-22.98,6.5,3963,3728,4095,4095
7,2,324693,0,-0.02,0.77,-6.39,-24.05,10.61,3970,3727,4095,4095
7,2,324705,0.05,-0.02,0.77,-7.68,-21.79,13.52,3960,3729,4095,4095
7,2,324717,0.11,-0.01,0.81,-7.39,-8.69,11.74,3972,3729,4095,4095
7,2,324729,0.12,-0.02,0.83,-8.19,3.72,8.57,3967,3727,4095,4095
7,2,324741,0.12,-0.03,0.84,-8.59,14.53,5.98,3970,3728,4095,4095
7,2,324753,0.08,-0.04,0.84,-8.56,21.8,-0.26,4003,3725,4095,4095
7,2,324765,0.02,-0.06,0.83,-8.52,21.39,-6.17,3979,3724,4095,4095
7,2,324777,0,-0.09,0.84,-5.58,17.82,-10.62,3952,3728,4095,4095
7,2,324789,-0.06,-0.1,0.85,0.33,17.01,-10.19,3939,3727,4095,4095
7,2,324801,-0.06,-0.04,0.86,3.34,14.64,-8.3,3977,3727,4095,4095
7,2,324813,-0.06,0,0.82,3.99,12.11,-6.28,3985,3725,4095,4095
7,2,324825,-0.01,0.03,0.88,4.48,9.42,-8.11,3964,3728,4095,4095
7,2,324837,0.04,-0.01,0.92,4.71,5.17,-9.18,3983,3727,4095,4095
7,2,324849,0.1,0.04,0.89,5.19,6,-12.68,3951,3719,4095,4095
7,2,324861,0.1,0.05,0.85,2.86,4.26,-15.49,3975,3725,4095,4095
7,2,324873,0.07,0.01,0.87,0.91,5.59,-13.61,3969,3727,4095,4095
7,2,324885,0.03,0,0.87,2.83,8.93,-10.57,3968,3728,4095,4095
8,2,356397,-0.02,0.14,1.03,-5.61,-8.12,4.1,3943,3653,4095,4095
8,2,356410,0.04,0.12,1.02,-7.65,-8.34,5.69,3965,3650,4095,4095
8,2,356421,0.08,0.08,1,-9.24,-8.38,4.57,3914,3655,4095,4095
8,2,356433,0.12,0.06,1.02,-8.11,-4.43,-0.05,3943,3649,4095,4095
8,2,356445,0.14,0.04,1.04,-3.96,-0.76,-5.53,3933,3649,4095,4095
8,2,356457,0.15,0.03,1.06,-0.22,4.32,-11.21,3930,3654,4095,4095
8,2,356469,0.09,0.05,1.07,2.82,8.84,-16.43,3920,3649,4095,4095
8,2,356481,0.03,0.07,1.06,5.28,10.91,-18.57,3949,3649,4095,4095
8,2,356493,-0.06,0.11,1.06,4.73,8.79,-20.43,3947,3647,4095,4095
8,2,356505,-0.09,0.12,1.05,3.35,4.01,-18.28,3951,3655,4095,4095
8,2,356517,-0.1,0.1,1.05,1.67,-1.62,-11.7,3904,3648,4095,4095
8,2,356529,-0.05,0.12,1.03,-0.46,-4.86,-9.46,3934,3648,4095,4095
8,2,356541,-0.02,0.12,1.06,-0.57,-5.04,-7.64,3938,3660,4095,4095
8,2,356553,-0.03,0.11,1.05,-1.65,-8.44,-4.69,3931,3652,4095,4095
8,2,356565,0.01,0.14,1.07,-1.43,-6.64,-4.36,3939,3650,4095,4095
8,2,356577,-0.02,0.14,1.07,-3.41,-7.51,-2.95,3936,3653,4095,4095
8,2,356589,-0.05,0.13,1.07,-5.32,-9.33,-0.04,3947,3648,4095,4095
8,2,356601,-0.04,0.13,1.07,-5.67,-9.67,2.76,3954,3648,4095,4095
8,2,356613,-0.03,0.13,1.05,-6.37,-9.76,2.06,3951,3648,4095,4095
8,2,356625,-0.04,0.09,1.07,-5.62,-13.88,5.96,3952,3647,4095,4095
8,2,356637,0.03,0.11,1.06,-3.7,-13.77,5.77,3945,3650,4095,4095
8,2,356649,0.03,0.11,1.06,-0.46,-10.52,0.97,3952,3643,4095,4095
8,2,356661,0.04,0.1,1.05,0.94,-11.18,0.03,3951,3649,4095,4095
8,2,356673,0.03,0.1,1.05,2.25,-12.78,-0.68,3952,3648,4095,4095
8,2,356685,0.01,0.09,1.05,2.16,-15.45,1.67,3941,3657,4095,4095
8,2,356697,-0.03,0.1,1.03,2.61,-15.16,2.13,3941,3651,4095,4095
8,2,356709,-0.04,0.11,1.03,3.77,-16.83,4.79,3906,3657,4095,4095
8,2,356721,0,0.14,1,2.18,-20.55,7.09,3941,3661,4095,4095
8,2,356733,0.03,0.13,1.01,-1.82,-24.37,9.84,3937,3647,4095,4095
8,2,356745,0.08,0.12,1.03,-3.26,-19.41,8.16,3898,3655,4095,4095
8,2,356757,0.08,0.09,0.99,-4.19,-12.73,4.16,3941,3655,4095,4095
8,2,356769,0.09,0.07,1,-4.07,-7.54,4.07,3952,3655,4095,4095
8,2,356781,0.04,0.07,0.98,-3.87,-4.31,2.67,3924,3661,4095,4095
8,2,356793,0.02,0.08,0.97,-3.17,-3.1,0.91,3946,3650,4095,4095
8,2,356805,0.01,0.09,0.99,-3.87,-2.87,-1.07,3952,3661,4095,4095
8,2,356817,0,0.08,0.97,-3.35,-3.18,-0.04,3935,3651,4095,4095
8,2,356829,0.02,0.07,0.99,-1.24,-1.71,0.93,3974,3647,4095,4095
8,2,356841,0.03,0.06,1,1.9,-0.54,1.14,3952,3648,4095,4095
8,2,356853,0.05,0.1,1.01,3.46,-1.09,-1.73,3923,3648,4095,4095
8,2,356865,0.03,0.12,1.01,2.8,-5.79,-0.8,3939,3649,4095,4095
8,2,356877,0.05,0.14,1.03,0.9,-8.2,-0.14,3950,3648,4095,4095
8,2,356889,0.03,0.18,0.97,-4.86,-7.96,-2.48,3922,3658,4095,4095
8,2,356901,-0.01,0.16,0.94,-10.92,-9.16,1.54,3948,3648,4095,4095
8,2,356913,-0.01,0.12,0.97,-14.45,-6.78,6.1,3952,3648,4095,4095
8,2,356925,0.01,0.06,0.98,-13.26,-0.52,9.48,3925,3650,4095,4095
8,2,356937,0.03,0.03,0.99,-9.64,4.66,11.95,3952,3654,4095,4095
8,2,356949,0.06,0.04,1.02,-4.56,9.69,6.57,3966,3655,4095,4095
8,2,356961,0.06,0.01,1.03,0.91,9.48,-0.28,3938,3647,4095,4095
8,2,356973,0.06,0.03,1.03,5.17,6.88,-5.07,3941,3647,4095,4095
8,2,356985,0.01,0.09,1.01,6.73,5.34,-7.17,3963,3650,4095,4095
8,2,356997,-0.02,0.12,0.99,4.91,4.93,-6.48,3951,3651,4095,4095
8,2,357009,-0.03,0.15,0.96,1.84,6.44,-2.14,3922,3645,4095,4095
8,2,357021,0.01,0.15,0.96,-3.81,6.32,1.49,3937,3650,4095,4095
8,2,357033,0.06,0.13,0.98,-6.28,8.98,1.8,3960,3654,4095,4095
8,2,357045,0.1,0.1,0.99,-4.19,9.05,-0.43,3971,3649,4095,4095
8,2,357057,0.02,0.01,0.98,-1.35,6.41,-6.34,3952,3651,4095,4095
8,2,357069,0.1,0,1.05,3.87,-0.75,-5.56,3955,3648,4095,4095
8,2,357081,0.08,0.07,1.04,7.98,-5.41,-11.03,3963,3658,4095,4095
8,2,357093,0,0.09,1.01,8.21,-9.77,-16.31,3952,3659,4095,4095
8,2,357105,0,0.11,1,5.78,-15.22,-13.29,3946,3661,4095,4095
8,2,357117,-0.02,0.17,0.97,0.45,-16.7,-12.86,3935,3650,4095,4095
8,2,357129,-0.03,0.16,0.93,-3.93,-13.91,-12.89,3933,3644,4095,4095
8,2,357141,-0.01,0.11,0.96,-8.17,-14.09,-8.3,3938,3649,4095,4095
8,2,357153,0.04,0.1,0.97,-7.36,-8.14,-6.42,3925,3639,4095,4095
8,2,357165,0.05,0.06,1.01,-4.91,-3.76,-6.37,3942,3654,4095,4095
8,2,357177,0.06,0.04,1.01,0.59,-0.17,-9.64,3932,3648,4095,4095
8,2,357189,0.03,0.03,1.02,6.54,1.72,-12.72,3939,3653,4095,4095
8,2,357201,0.02,0.07,1.01,10.45,2.95,-14.19,3938,3658,4095,4095
8,2,357213,0.01,0.13,0.99,11.83,1.72,-15.82,3945,3651,4095,4095
8,2,357225,0.02,0.16,0.99,9.84,-0.57,-16.36,3946,3658,4095,4095
8,2,357237,0.05,0.18,0.99,5.77,-0.92,-18.17,3925,3650,4095,4095
8,2,357249,0.04,0.15,0.99,3.14,0.99,-18.66,3952,3649,4095,4095
8,2,357261,0.02,0.12,1.02,2.36,3.22,-16.01,3923,3648,4095,4095
8,2,357273,-0.02,0.13,0.98,4.47,6.14,-15.52,3954,3649,4095,4095
8,2,357285,-0.03,0.14,0.99,4.8,6.99,-14.48,3936,3657,4095,4095
8,2,357297,-0.04,0.14,1.01,4.28,5.02,-11.07,3963,3651,4095,4095
8,2,357309,-0.02,0.15,1.01,4.22,3.53,-9.81,3947,3638,4095,4095
8,2,357321,0.01,0.16,1.04,5.84,6.9,-11,3946,3655,4095,4095
8,2,357333,0.02,0.15,1.05,5.95,11.36,-10.31,3943,3643,4095,4095
8,2,357345,0.02,0.15,1.06,7.64,16.38,-7.47,3944,3649,4095,4095
8,2,357357,-0.03,0.13,1.03,8.16,18.26,-6.17,3937,3648,4095,4095
8,2,357369,-0.06,0.12,1.05,10.21,18.93,-5.33,3937,3647,4095,4095
8,2,357381,-0.08,0.11,1.03,11.83,11.59,-2.46,3904,3652,4095,4095
8,2,357393,-0.09,0.09,1.06,12.94,4.9,-2.6,3949,3648,4095,4095
8,2,357405,-0.05,0.13,1.07,14.48,-2.03,-4.43,3900,3648,4095,4095
8,2,357417,-0.01,0.15,1.06,14.99,-10.23,-3.49,3969,3649,4095,4095
8,2,357429,-0.01,0.14,1.04,15.6,-18.57,-2.59,3939,3647,4095,4095
8,2,357441,0.03,0.16,1.02,16.57,-25.96,0.25,3907,3651,4095,4095
8,2,357453,0.04,0.16,1.06,16.9,-27.34,-0.08,3952,3648,4095,4095
8,2,357465,0.04,0.14,1.04,20.15,-26.92,2.47,3933,3648,4095,4095
8,2,357477,-0.04,0.13,1,22.24,-29.28,8.74,3952,3655,4095,4095
8,2,357489,0,0.16,1.06,24.93,-26.76,8.79,3964,3654,4095,4095
8,2,357501,-0.05,0.24,0.9,24.51,-33.8,12.41,3952,3647,4095,4095
8,2,357513,0.01,0.3,0.89,14.12,-40.02,11.69,3952,3661,4095,4095
8,2,357525,0.03,0.28,0.88,6.16,-43.53,16.38,3946,3650,4095,4095
8,2,357537,0.07,0.24,0.88,-1.58,-42.49,20.07,3968,3653,4095,4095
8,2,357549,0.07,0.23,0.88,-7.72,-35.8,18.13,3973,3655,4095,4095
8,2,357561,0.1,0.2,0.88,-10.11,-28.09,15.72,3982,3651,4095,4095
8,2,357573,0.06,0.16,0.89,-10.86,-20.29,13.92,3939,3648,4095,4095
8,2,357585,-0.05,0.06,0.86,-11.81,-20.9,17.08,3977,3651,4095,4095
8,2,357597,-0.02,0.04,0.89,-8.13,-20.43,20.57,3943,3641,4095,4095
8,2,357609,0.01,0.08,0.87,-3.65,-18.6,18.51,3963,3653,4095,4095
8,2,357621,0.08,0.12,0.86,-1.73,-19.96,12.13,3940,3651,4095,4095
8,2,357633,0.1,0.12,0.85,-2.65,-22.22,8.76,3733,3648,4095,4095
8,2,357645,0.16,0.12,0.83,-6.74,-21.82,4.56,3635,3648,4095,4095
8,2,357657,0.2,0.14,0.89,-4.14,-9.04,-3.33,3617,3650,4095,4095
8,2,357669,0.17,0.11,0.88,-2.39,4.38,-8.48,3971,3651,4095,4095
8,2,357681,0.13,0.1,0.87,-0.56,15.66,-9.62,3935,3655,4095,4095
8,2,357693,0.1,0.1,0.87,1.31,26.4,-10.85,3923,3647,4095,4095
8,2,357705,0.06,0.09,0.92,3.4,35.17,-13,3653,3655,4095,4095
8,2,357717,0.04,0.09,0.93,4.03,40.01,-11.91,3642,3648,4095,4095
8,2,357729,0.03,0.11,0.95,5.9,46.12,-11.26,3247,3648,4095,4095
8,2,357741,0.02,0.12,0.94,6.83,51.3,-10.25,3885,3654,4095,4095
8,2,357753,0.02,0.15,0.93,5.29,53.8,-7.73,3600,3655,4095,4095
8,2,357765,-0.01,0.15,0.95,5.58,58.49,-6.57,3648,3652,4095,4095
8,2,357777,-0.03,0.15,0.99,4.44,59.88,-3.53,1868,3655,4095,4095
8,2,357789,-0.08,0.11,1.01,4.88,58.27,0.76,2007,3659,4095,4095
8,2,357801,-0.07,0.13,1.02,6.27,54,3.93,3795,3652,4095,4095
8,2,357813,-0.08,0.12,1.06,7.66,47.25,8.3,3883,3651,4095,4095
8,2,357825,-0.07,0.14,1.07,6.82,36.01,9.98,3947,3657,4095,4095
8,2,357837,-0.05,0.15,1.07,5.72,26.04,10.01,3952,3653,4095,4095
8,2,357849,-0.05,0.15,1.05,3.14,14.66,9.69,3941,3654,4095,4095
8,2,357861,-0.02,0.15,1.09,1.72,6.12,7.8,3952,3649,4095,4095
8,2,357873,-0.02,0.13,1.07,-0.75,-4.28,7.67,3947,3651,4095,4095
8,2,357885,0.01,0.13,1.11,-1.67,-13.53,8.54,3931,3658,4095,4095
8,2,357897,0.02,0.12,1.1,-1.99,-20.84,5.81,3967,3657,4095,4095
8,2,357909,0.03,0.12,1.1,-1.67,-27.02,1.99,3931,3649,4095,4095
8,2,357921,0.02,0.11,1.08,-1.52,-34.2,-2.36,3931,3659,4095,4095
8,2,357933,0.01,0.1,1.06,-1.99,-40.76,-4.51,3973,3654,4095,4095
8,2,357945,0,0.12,1.03,-2.33,-46.55,-8.1,3939,3653,4095,4095
8,2,357957,-0.03,0.1,1,-2.68,-50.96,-9.56,3955,3650,4095,4095
8,2,357969,-0.03,0.09,1.02,-2.8,-56.44,-8.6,3898,3654,4095,4095
8,2,357981,0.01,0.11,1.01,-2.13,-59.73,-9.99,3947,3651,4095,4095
8,2,357993,0.02,0.13,0.98,-2.59,-63.15,-12.37,3943,3659,4095,4095
8,2,358005,0.01,0.13,0.96,-4.63,-64.96,-12.42,3954,3651,4095,4095
8,2,358017,-0.04,0.12,0.91,-6.43,-68.78,-10.62,3950,3649,4095,4095
8,2,358029,-0.01,0.14,0.9,-5.21,-66.92,-11.1,3964,3650,4095,4095
8,2,358041,0,0.12,0.9,-4.2,-66.38,-12.78,3957,3648,4095,4095
8,2,358053,0.03,0.12,0.88,-2.4,-68.34,-9.1,3937,3650,4095,4095
8,2,358065,0.04,0.14,0.87,-1.04,-71.07,-11.3,3959,3651,4095,4095
8,2,358077,0.02,0.13,0.86,0.99,-72.34,-11.65,3948,3661,4095,4095
8,2,358089,0.05,0.17,0.83,2.71,-65.27,-13.82,3937,3659,4095,4095
8,2,358101,0.04,0.2,0.8,0.51,-60.98,-12.01,3973,3651,4095,4095
8,2,358113,0.05,0.21,0.76,-1.9,-51.85,-6.63,3917,3649,4095,4095
8,2,358125,0.05,0.21,0.74,-5.53,-38,-0.49,3946,3650,4095,4095
8,2,358137,0.04,0.17,0.71,-7.62,-28.52,6.62,3939,3653,4095,4095
8,2,358149,0.06,0.17,0.73,-6.11,-17.65,9.61,3966,3655,4095,4095
8,2,358161,0.05,0.15,0.73,-4.91,-9.1,10.01,3936,3657,4095,4095
8,2,358173,0.06,0.14,0.72,-3.61,-3.94,12.03,3947,3650,4095,4095
8,2,358185,0.05,0.16,0.71,-4.51,2.69,12.45,3939,3654,4095,4095
8,2,358197,0.03,0.16,0.7,-6.11,8.06,12.8,3945,3653,4095,4095
8,2,358209,0,0.14,0.69,-8.4,11.57,15.89,3939,3648,4095,4095
8,2,358221,0.02,0.15,0.7,-9.06,15.95,16.3,3941,3653,4095,4095
8,2,358233,0.05,0.14,0.71,-8.16,24.7,14.44,3941,3659,4095,4095
8,2,358245,0.08,0.11,0.76,-6.48,32.2,15.43,3947,3655,4095,4095
8,2,358257,0.12,0.16,0.77,-6.75,38.15,13.25,3952,3652,4095,4095
8,2,358269,0.1,0.14,0.79,-5.41,46.06,11.72,3962,3653,4095,4095
8,2,358281,0.07,0.13,0.81,-6.88,50.01,8.16,3951,3658,4095,4095
8,2,358293,0.07,0.13,0.82,-8.28,52.49,8.32,3967,3663,4095,4095
8,2,358305,0.03,0.11,0.85,-9.47,54.04,8.06,3952,3665,4095,4095
8,2,358317,0.04,0.11,0.84,-9.79,54.93,7.77,3935,3652,4095,4095
8,2,358329,0.04,0.11,0.86,-8.88,58.69,5.03,3924,3653,4095,4095
8,2,358341,0.03,0.07,0.87,-6.98,59.56,4.99,3949,3642,4095,4095
8,2,358353,0.05,0.08,0.92,-4.39,61.86,1.75,3937,3651,4095,4095
8,2,358365,0.03,0.08,0.95,-1.58,60.95,-1.15,3943,3650,4095,4095
8,2,358377,0,0.08,0.97,0.86,57.91,-2.37,3943,3680,4095,4095
8,2,358389,-0.01,0.1,0.98,1.4,51.13,-3.68,3970,3653,4095,4095
8,2,358401,-0.01,0.13,1.01,0.24,42.49,-7.96,3950,3651,4095,4095
8,2,358413,-0.04,0.12,1,-1.99,32.12,-9.26,3946,3653,4095,4095
9,2,381801,0.02,0.01,0.95,-9.85,-2.18,-15.99,3739,3695,4095,4095
9,2,381813,0.01,0.01,0.96,-9.14,-0.08,-16.66,3885,3699,4095,4095
9,2,381825,-0.02,-0.03,0.98,-6.69,1.45,-13.87,3785,3705,4095,4095
9,2,381837,-0.02,-0.01,0.98,-3.12,2.38,-10.05,3890,3698,4095,4095
9,2,381849,0,0.02,0.98,-1.39,2.37,-9.65,3889,3696,4095,4095
9,2,381861,0.01,0.04,1,-0.92,2.3,-10.68,3885,3709,4095,4095
9,2,381873,0,0.04,0.94,-3.3,-1.92,-11.44,3915,3697,4095,4095
9,2,381885,0.02,0.07,0.98,-5.36,-1.51,-13.12,3904,3701,4095,4095
9,2,381897,0.04,0.08,0.97,-9.53,-3.76,-16.83,3897,3702,4095,4095
9,2,381909,0.02,0.05,0.98,-11.23,-3.31,-17.97,3895,3699,4095,4095
9,2,381921,0,0.02,1.01,-9.59,-1.53,-16.83,3887,3698,4095,4095
9,2,381933,-0.04,0.01,0.98,-6.57,-0.61,-15.53,3920,3702,4095,4095
9,2,381945,-0.04,0.03,0.98,-3.04,-1.34,-12.4,3899,3696,4095,4095
9,2,381957,-0.01,0.07,0.96,-2.89,-3.07,-10.63,3878,3698,4095,4095
9,2,381969,0,0.1,0.94,-5.68,-4.51,-10.63,3862,3696,4095,4095
9,2,381981,0.04,0.11,0.93,-9.93,-6.95,-10.95,3887,3695,4095,4095
9,2,381993,0.06,0.11,0.95,-13.01,-6.12,-12.89,3915,3699,4095,4095
9,2,382005,0.06,0.11,0.94,-15.84,-3.22,-16.33,3889,3711,4095,4095
9,2,382017,0.02,0.07,0.95,-16.74,-1.86,-15.38,3851,3700,4095,4095
9,2,382029,-0.01,0.05,0.96,-15.29,-0.35,-12.86,3856,3696,4095,4095
9,2,382041,-0.01,0.04,0.98,-11.65,0.85,-11.55,3895,3702,4095,4095
9,2,382053,-0.01,0.05,0.97,-9.15,0.24,-11.15,3856,3702,4095,4095
9,2,382065,-0.02,0.06,0.97,-7.52,-1.85,-9.33,3885,3703,4095,4095
9,2,382077,0.01,0.07,0.97,-7.2,-2.57,-9.81,3879,3696,4095,4095
9,2,382089,0.02,0.09,0.97,-7.47,-1.85,-11.85,3901,3705,4095,4095
9,2,382101,0.02,0.09,0.95,-7.14,-2,-12.02,3907,3703,4095,4095
9,2,382113,0.01,0.07,0.97,-8.34,-3.82,-11.82,3888,3696,4095,4095
9,2,382125,0.02,0.09,0.95,-8.86,-7.53,-11.14,3911,3699,4095,4095
9,2,382137,0.05,0.1,0.95,-8.94,-6.37,-16.22,3890,3698,4095,4095
9,2,382149,0.03,0.09,0.97,-6.11,-5.13,-16.77,3909,3690,4095,4095
9,2,382161,0.04,0.12,0.97,-4.34,-3.45,-16.51,3893,3701,4095,4095
9,2,382173,0.02,0.11,0.95,-3.2,-2.38,-15.46,3898,3705,4095,4095
9,2,382185,0.01,0.14,0.93,-3.43,-2.52,-10.83,3889,3704,4095,4095
9,2,382197,0.01,0.17,0.94,-4.37,-0.8,-6.04,3879,3695,4095,4095
9,2,382209,-0.01,0.16,0.92,-6.08,0.14,-0.3,3890,3697,4095,4095
9,2,382221,0.01,0.19,0.94,-7.88,-0.54,4.94,3920,3689,4095,4095
9,2,382233,-0.03,0.16,0.91,-11.24,-2.86,8.12,3900,3702,4095,4095
9,2,382245,-0.03,0.14,0.93,-13.29,-6.8,13.92,3878,3698,4095,4095
9,2,382257,-0.01,0.15,0.93,-15.65,-5.91,19.61,3904,3696,4095,4095
9,2,382269,0.02,0.13,0.94,-18.48,-3.57,19.35,3889,3701,4095,4095
9,2,382281,0.02,0.11,0.85,-21.21,-4.87,22.77,3888,3699,4095,4095
9,2,382293,0.06,0.09,0.92,-23.04,-2.17,19.11,3852,3709,4095,4095
9,2,382305,0.1,0.04,0.98,-20.17,1.45,11.23,3899,3691,4095,4095
9,2,382317,0.09,-0.03,1.02,-14.71,4.84,4.15,3883,3701,4095,4095
9,2,382329,0.06,-0.03,1,-6.78,6.87,-5.5,3883,3703,4095,4095
9,2,382341,0.05,-0.01,1.02,3.15,9.88,-12.97,3895,3703,4095,4095
9,2,382353,-0.01,0.04,1,9.73,8.41,-17.39,3904,3712,4095,4095
9,2,382365,-0.03,0.09,0.98,12.7,6.49,-17.53,3851,3703,4095,4095
9,2,382377,-0.06,0.16,0.91,10.48,2.32,-12.91,3856,3701,4095,4095
9,2,382389,-0.06,0.16,0.89,2.62,-3.3,-3.91,3888,3710,4095,4095
9,2,382401,0.07,0.16,0.93,-4.46,-5.65,2.48,3891,3727,4095,4095
9,2,382413,0.12,0.13,0.98,-5.55,0.73,2.61,3898,3709,4095,4095
9,2,382425,0.1,0.09,1.01,-2.86,9.31,-0.69,3929,3707,4095,4095
9,2,382437,0.02,0.07,0.99,0.44,10.75,0.45,3890,3706,4095,4095
9,2,382449,0,0.09,0.98,2.44,9.3,3.09,3899,3711,4095,4095
9,2,382461,0,0.11,0.97,2.61,10.21,4.1,3901,3706,4095,4095
9,2,382473,-0.02,0.14,0.96,-0.54,11.02,7.43,3862,3710,4095,4095
9,2,382485,-0.03,0.15,0.94,-4.88,12.09,12.12,3902,3703,4095,4095
9,2,382497,-0.01,0.15,0.95,-11.06,12.84,13.9,3927,3705,4095,4095
9,2,382509,0.01,0.12,0.96,-15.73,13.69,13.43,3903,3699,4095,4095
9,2,382521,0.02,0.09,0.97,-17.35,12.75,12.04,3888,3701,4095,4095
9,2,382533,0.02,0.03,0.98,-16.08,13.62,9.74,3922,3701,4095,4095
9,2,382545,0.05,0.02,0.99,-11.17,16.2,7,3889,3705,4095,4095
9,2,382557,0.06,0.01,0.99,-7.62,20.73,1.49,3838,3708,4095,4095
9,2,382569,0.03,0.02,1.01,-4.75,25.91,-0.66,3910,3701,4095,4095
9,2,382581,-0.01,0.06,0.96,-4.08,27.94,0.21,3933,3703,4095,4095
9,2,382593,-0.06,0.05,0.93,-5.27,30.06,2.07,3894,3701,4095,4095
9,2,382605,-0.08,0.08,0.98,-4.71,24.46,-0.11,3921,3708,4095,4095
9,2,382617,0.11,-0.03,1.06,-0.94,-0.69,-15.17,3893,3700,4095,4095
9,2,382629,-0.06,-0.09,1.15,16.01,-17.42,-30.01,3894,3700,4095,4095
9,2,382641,0.05,-0.01,1.07,32.53,-33.59,-21.06,3888,3696,4095,4095
9,2,382653,0.11,0.12,1.01,42.24,-27.48,-20.05,3922,3709,4095,4095
9,2,382665,0.12,0.24,0.91,36.39,-17.8,-15.12,3901,3696,4095,4095
9,2,382677,0.1,0.35,0.91,24.5,-7.19,-3.15,3922,3712,4095,4095
9,2,382689,0.07,0.35,0.87,6.77,-1.34,4.06,3902,3706,4095,4095
9,2,382701,0.06,0.26,0.93,-7.5,3.46,12.8,3899,3710,4095,4095
9,2,382713,0.05,0.15,0.95,-13.96,10.01,19.06,3892,3703,4095,4095
9,2,382725,0.04,0.08,1,-12.22,18.61,22.65,3915,3709,4095,4095
9,2,382737,-0.03,0.05,1.03,-8.04,22.11,21.55,3915,3710,4095,4095
9,2,382749,-0.06,0.04,1.02,-5.38,18.12,25.57,3903,3706,4095,4095
9,2,382761,-0.05,0.05,1.03,-5.36,11.04,27.8,3894,3705,4095,4095
9,2,382773,-0.05,0.06,1.01,-4.77,7.37,21.87,3892,3707,4095,4095
9,2,382785,-0.06,0.03,1.04,-4.11,2.33,18.3,3900,3702,4095,4095
9,2,382797,-0.03,0.04,1.02,-2.75,-2.12,16.71,3857,3706,4095,4095
9,2,382809,-0.01,0.04,1.01,-1.01,-4.37,14.9,3907,3702,4095,4095
9,2,382821,0,0.05,1,0.94,-1.6,12.12,3906,3703,4095,4095
9,2,382833,0.01,0.04,0.99,0.16,0.99,10.7,3903,3696,4095,4095
9,2,382845,-0.02,0.03,0.99,0.36,0.91,11.8,3895,3705,4095,4095
9,2,382857,0,0.04,1.01,-1.97,-6.09,11,3914,3722,4095,4095
9,2,382869,0.02,0.02,1,-3.36,-11.73,6.74,3934,3728,4095,4095
9,2,382881,0.08,0.02,1.03,-4.77,-15.8,3.57,3920,3747,4095,4095
9,2,382893,0.13,0.03,1.03,-5.93,-12.84,-1.07,3927,3728,4095,4095
9,2,382905,0.13,0.04,1.01,-7.5,-6.72,-8.02,3891,3713,4095,4095
9,2,382917,0.1,0.03,1.02,-8.98,-1.24,-10.88,3923,3712,4095,4095
9,2,382929,0.09,0.01,1.04,-7.96,4.99,-12.97,3939,3710,4095,4095
9,2,382941,0.03,0,1.06,-2.92,9.43,-15.82,3925,3713,4095,4095
9,2,382953,-0.05,-0.02,1.04,1.89,9.3,-15.35,3903,3714,4095,4095
9,2,382965,-0.07,0.04,1.06,7.67,8.26,-12.66,3894,3714,4095,4095
9,2,382977,-0.09,0.08,1.02,8.7,2.85,-12.3,3938,3712,4095,4095
9,2,382989,-0.12,0.07,1,8.77,-4.47,-7.18,3914,3713,4095,4095
9,2,383001,-0.1,0.1,0.96,7.61,-11.5,0.33,3872,3715,4095,4095
9,2,383013,-0.06,0.12,0.99,5.25,-15.96,6.01,3920,3713,4095,4095
9,2,383025,-0.02,0.11,0.98,1.9,-18.11,12.44,3917,3713,4095,4095
9,2,383037,0.03,0.11,0.98,-2.49,-17.89,15.89,3892,3709,4095,4095
9,2,383049,0.05,0.09,0.98,-6.66,-16.29,17.22,3902,3709,4095,4095
9,2,383061,0.08,0.1,0.98,-10.11,-12.96,14.86,3923,3712,4095,4095
9,2,383073,0.06,0.04,0.98,-11.29,-10.99,12.42,3888,3711,4095,4095
9,2,383085,0.04,0.02,0.97,-8.97,-8.03,9.93,3914,3716,4095,4095
9,2,383097,0,0,0.97,-6.56,-5.82,7.87,3898,3713,4095,4095
9,2,383109,-0.01,-0.02,0.97,-3.38,-4.99,7.99,3906,3712,4095,4095
9,2,383121,-0.01,-0.01,0.95,-3.1,-5.53,8.04,3904,3706,4095,4095
9,2,383133,-0.01,0.02,0.94,-3.47,-6.66,7.38,3897,3713,4095,4095
9,2,383145,0,0.01,0.93,-4.62,-8.31,5.72,3904,3713,4095,4095
9,2,383157,0.02,-0.01,0.94,-4.45,-8.14,3.4,3914,3711,4095,4095
9,2,383169,0.05,-0.03,0.96,-1.35,-6.18,1.51,3911,3701,4095,4095
9,2,383181,0.08,0.03,0.96,1.4,-4.37,-1.03,3915,3713,4095,4095
9,2,383193,0.08,0.04,0.95,3.61,0.15,-2.81,3911,3714,4095,4095
9,2,383205,0.04,0.04,0.91,1.84,0.85,-1.68,3915,3712,4095,4095
9,2,383217,0.04,0.07,0.93,0.04,2.21,0.73,3909,3710,4095,4095
9,2,383229,0.03,0.06,0.94,-2.17,3.83,1.31,3909,3712,4095,4095
9,2,383241,0.02,0.05,0.96,-3.87,3.94,0.56,3898,3707,4095,4095
9,2,383253,0.01,0.03,0.97,-3.41,3.83,1.06,3927,3713,4095,4095
9,2,383265,0.01,0.02,0.99,-2.49,2.69,0.03,3923,3712,4095,4095
9,2,383277,-0.01,0.02,0.98,-0.57,1.78,-1.27,3891,3707,4095,4095
9,2,383289,-0.01,0.03,0.99,1.11,0.49,-0.6,3886,3707,4095,4095
9,2,383301,-0.01,0.04,0.98,0.51,-0.9,0.22,3903,3712,4095,4095
9,2,383313,0,0.08,0.97,-0.88,-0.9,1.05,3904,3715,4095,4095
9,2,383325,-0.02,0.04,0.97,-2.48,-2.41,1.19,3897,3722,4095,4095
9,2,383337,0.01,0.05,0.95,-4.71,-3.79,1.32,3904,3719,4095,4095
9,2,383349,0.02,0.04,1,-4.68,-4.14,0.47,3906,3712,4095,4095
9,2,383361,0.02,0.01,0.98,-2.13,-5.01,1.11,3903,3711,4095,4095
9,2,383373,0.01,0.02,0.98,-0.69,-6.08,1.25,3899,3711,4095,4095
9,2,383385,0.03,0.04,0.97,0.85,-6.05,2.25,3900,3706,4095,4095
9,2,383397,0.03,0.06,0.95,-0.13,-5.74,3.12,3923,3698,4095,4095
9,2,383409,0.04,0.06,0.93,-1.7,-2.51,0.85,3909,3712,4095,4095
9,2,383421,0.02,0.01,0.93,-5.18,-4.22,-0.46,3872,3703,4095,4095
9,2,383433,0.03,0,0.93,-5.91,-4.28,-0.01,3897,3709,4095,4095
9,2,383445,0.04,-0.02,0.96,-4.36,-2.57,-1.68,3911,3712,4095,4095
9,2,383457,0.06,-0.02,0.98,-1.33,0.5,-4.45,3902,3707,4095,4095
9,2,383469,0.05,0,0.96,2.32,3.45,-8.08,3920,3712,4095,4095
9,2,383481,0.04,0.01,0.95,4.27,5.98,-10.65,3920,3713,4095,4095
9,2,383493,0.01,0.03,0.94,4.35,6.75,-11.44,3920,3713,4095,4095
9,2,383505,-0.01,0.03,0.91,3.9,8.35,-13.49,3898,3713,4095,4095
9,2,383517,-0.02,0.04,0.97,2.48,6.18,-13.61,3910,3712,4095,4095
9,2,383529,-0.01,0.04,0.95,1.87,2.75,-8.69,3854,3716,4095,4095
9,2,383541,0,0.06,0.97,1.51,3.48,-8.23,3939,3710,4095,4095
9,2,383553,-0.01,0.05,0.97,1.29,4.23,-6.94,3885,3715,4095,4095
9,2,383565,0,0.06,0.97,0.51,3.48,-3.52,3894,3713,4095,4095
9,2,383577,0.01,0.08,0.97,-1.56,3.65,-3.09,3920,3713,4095,4095
9,2,383589,-0.01,0.06,0.98,-2.11,4.33,-3.41,3902,3707,4095,4095
9,2,383601,-0.03,0.04,0.98,-2.66,3.34,-2.42,3934,3711,4095,4095
9,2,383613,-0.03,0.05,0.98,-2.27,1.6,-0.42,3899,3712,4095,4095
9,2,383625,-0.02,0.05,0.98,-1.85,-0.06,0.32,3911,3713,4095,4095
9,2,383637,-0.01,0.05,0.98,-1.65,-0.92,0.88,3967,3712,4095,4095
9,2,383649,0,0.06,0.97,-1.72,-1.54,1.43,3896,3712,4095,4095
9,2,383661,0.02,0.05,0.97,-1.62,-2.98,1.67,3935,3710,4095,4095
9,2,383673,0.04,0.05,0.97,-2.28,-3.04,1.44,3917,3714,4095,4095
9,2,383685,0.04,0.05,0.97,-2.72,-2.25,1.92,3857,3712,4095,4095
9,2,383697,0.04,0.04,0.97,-2.85,0,2.38,3900,3713,4095,4095
9,2,383709,0.03,0.04,0.97,-2.46,1.74,1.64,3897,3696,4095,4095
9,2,383721,0.02,0.03,0.97,-1.99,1.91,0.62,3920,3710,4095,4095
9,2,383733,0.01,0.03,0.98,-0.92,1.48,-0.65,3871,3713,4095,4095
9,2,383745,0.01,0.03,0.98,0.53,1.33,-2.04,3895,3707,4095,4095
9,2,383757,0,0.03,0.97,1.44,0.01,-3,3895,3711,4095,4095
9,2,383769,0.01,0.04,0.98,2.16,-1.5,-2.97,3904,3711,4095,4095
9,2,383781,0.03,0.06,0.97,2.04,-1.54,-2.78,3922,3706,4095,4095
9,2,383793,0.03,0.06,0.96,0.93,-1.07,-2.86,3913,3714,4095,4095
9,2,383805,0.02,0.05,0.97,0.13,-0.58,-2.28,3903,3710,4095,4095
10,2,430101,0,0.02,0.96,-14.8,-13.33,10.65,3915,3662,4095,4095
10,2,430113,0.01,0.01,0.96,-11.47,-10.23,12.18,3914,3667,4095,4095
10,2,430125,0,0.02,0.96,-9.03,-7.74,7.34,3909,3664,4095,4095
10,2,430137,-0.04,0.01,0.93,-9.1,-9.76,2.07,3905,3664,4095,4095
10,2,430149,-0.07,-0.03,0.94,-9.01,-17.24,2.15,3871,3665,4095,4095
10,2,430161,-0.07,0,0.96,-6.01,-18.73,-0.16,3910,3662,4095,4095
10,2,430173,-0.05,-0.01,0.95,-5.47,-20.81,-3.81,3911,3664,4095,4095
10,2,430185,0.02,0,0.96,-3.82,-18.61,-4.33,3919,3668,4095,4095
10,2,430197,0.07,0.04,0.93,-5.84,-14.55,-8.77,3904,3664,4095,4095
10,2,430209,0.08,0.02,0.93,-7.26,-9.91,-14.81,3914,3663,4095,4095
10,2,430221,0.05,0.01,0.94,-6.88,-4.31,-16.51,3924,3665,4095,4095
10,2,430233,0,0.03,0.91,-6.52,-2.02,-17.62,3871,3664,4095,4095
10,2,430245,-0.05,0.01,0.91,-3.06,0.61,-17.01,3951,3655,4095,4095
10,2,430257,-0.06,0,0.93,0.41,0.33,-13.91,3907,3664,4095,4095
10,2,430269,-0.04,0.02,0.93,2.25,0.17,-9.38,3922,3664,4095,4095
10,2,430281,0.02,0.07,0.94,2.74,0.53,-7.18,3905,3664,4095,4095
10,2,430293,0.08,0.12,0.94,0.12,3.22,-8.59,3910,3665,4095,4095
10,2,430305,0.1,0.12,0.91,-5.68,4.69,-11.27,3907,3664,4095,4095
10,2,430317,0.08,0.09,0.94,-8.2,7.34,-12.46,3906,3662,4095,4095
10,2,430329,0.03,0.05,0.92,-9.67,9.62,-9.9,3946,3664,4095,4095
10,2,430341,0.01,0.01,0.91,-7.78,10.76,-5.38,3915,3666,4095,4095
10,2,430353,0.06,0.01,0.94,-3.07,11.22,-2.85,3888,3664,4095,4095
10,2,430365,0.07,0.02,0.98,0.88,12.46,-2.34,3758,3668,4095,4095
10,2,430377,0.05,0.02,0.97,4.45,14.11,0.04,3046,3664,4095,4095
10,2,430389,-0.01,0.04,0.9,6.41,13.45,1.55,3159,3662,4095,4095
10,2,430401,-0.01,0.07,0.96,5.8,11.27,0.1,2862,3666,4095,4095
10,2,430413,-0.06,0.08,0.93,3.02,6.5,0.54,2306,3664,4095,4095
10,2,430425,-0.01,0.07,0.96,2.7,4.23,3.98,2986,3662,4095,4095
10,2,430437,0.06,0.08,0.95,3.89,6.4,-0.11,2014,3666,4095,4095
10,2,430449,0.11,0.05,0.97,4.61,10.29,-4.04,2736,3665,4095,4095
10,2,430461,0.09,0.04,0.95,5.84,15.31,-4.43,2800,3665,4095,4095
10,2,430473,0.05,0.05,0.99,6.9,19.16,-6.02,2219,3664,4095,4095
10,2,430485,-0.01,0.03,0.99,9.73,23.49,-7.3,2844,3664,4095,4095
10,2,430497,-0.05,0.04,1.02,11,23.74,-6.36,2037,3663,4095,4095
10,2,430509,-0.06,0.09,1.02,8.93,19.95,-4.39,2784,3664,4095,4095
10,2,430521,-0.03,0.13,1.01,3.25,15.72,-3.2,2767,3669,4095,4095
10,2,430533,-0.02,0.13,0.95,-4.42,9.77,-3.88,2299,3663,4095,4095
10,2,430545,0.01,0.1,0.97,-9.14,10.23,-2.71,3393,3669,4095,4095
10,2,430557,0.01,0.08,0.97,-10.71,11.46,-2.22,3119,3664,4095,4095
10,2,430569,-0.02,0.03,1,-9.44,13.68,1.34,3312,3663,4095,4095
10,2,430581,-0.02,0.03,0.99,-6.28,14.32,5.87,2787,3664,4095,4095
10,2,430593,-0.05,0.06,1.01,-4.91,12.46,7.78,2474,3665,4095,4095
10,2,430605,-0.06,0.06,0.99,-6.62,6.27,12.22,3635,3666,4095,4095
10,2,430617,-0.03,0.05,1.03,-7.23,0.72,14.73,3917,3664,4095,4095
10,2,430629,0.04,0.07,1.04,-5.87,3.1,9.57,3903,3664,4095,4095
10,2,430641,0.08,0.07,1.05,-5.67,5.02,2.96,3850,3667,4095,4095
10,2,430653,0.1,0.05,1,-7.61,5.72,0.79,3921,3665,4095,4095
10,2,430665,0.1,0.04,1.04,-5.3,11.57,0.74,3920,3665,4095,4095
10,2,430677,0.05,0.02,1.02,-4.78,17.2,-2.39,3914,3667,4095,4095
10,2,430689,0.02,0.03,1.07,-2.04,25.39,0.15,3878,3664,4095,4095
10,2,430701,-0.06,0.06,1.06,-0.88,28.3,6.36,3925,3667,4095,4095
10,2,430713,-0.14,0.09,1.01,-3.15,25.83,11.69,3911,3665,4095,4095
10,2,430725,-0.05,0.1,1.1,-3.67,11.74,10.1,3909,3670,4095,4095
10,2,430737,0.08,0.05,1.13,-3.09,-13.97,-5.61,3913,3662,4095,4095
10,2,430749,0,-0.04,1.13,1.4,-36.11,-15.75,3918,3662,4095,4095
10,2,430761,0.08,-0.01,1.07,10.88,-41.82,-13.46,3948,3659,4095,4095
10,2,430773,0.1,0.04,1.04,16.79,-29.3,-11.79,3922,3665,4095,4095
10,2,430785,0.07,0.1,0.96,16.57,-12.25,-4.23,3918,3671,4095,4095
10,2,430797,-0.02,0.13,0.91,10.76,-1.47,5.09,3939,3663,4095,4095
10,2,430809,-0.07,0.14,0.95,6.19,10.15,11.66,3915,3664,4095,4095
10,2,430821,-0.17,0.11,0.95,1.95,13.31,20.09,3910,3665,4095,4095
10,2,430833,-0.18,0.09,0.99,-2.68,5.66,28.54,3919,3669,4095,4095
10,2,430845,-0.12,0.1,0.99,-3.68,-8.47,28.28,3920,3664,4095,4095
10,2,430857,-0.07,0.08,1.03,-8.42,-27.51,25.37,3947,3667,4095,4095
10,2,430869,-0.02,0.05,1.07,-9.35,-36,22.82,3911,3666,4095,4095
10,2,430881,0.1,0.03,1.01,-9.43,-38.92,22.64,3933,3683,4095,4095
10,2,430893,0.13,0,1.03,-5.84,-32.64,20.22,3906,3669,4095,4095
10,2,430905,0.17,-0.02,0.98,-2.62,-22.09,17.15,3887,3662,4095,4095
10,2,430917,0.12,-0.02,0.97,0.56,-11.99,14.39,3941,3669,4095,4095
10,2,430929,0.06,-0.01,0.97,3.8,-2.31,12.76,3919,3683,4095,4095
10,2,430941,-0.04,-0.03,0.99,5.48,1.94,13.95,3927,3675,4095,4095
10,2,430953,-0.04,0.02,0.96,5.93,-1.47,15.02,3940,3653,4095,4095
10,2,430965,-0.04,0.01,0.97,4.09,-5.54,13.81,3920,3666,4095,4095
10,2,430977,0,0,0.95,0.76,-13.24,15.48,3918,3670,4095,4095
10,2,430989,0.04,-0.01,0.96,-2.05,-18.11,17.35,3909,3665,4095,4095
10,2,431001,0.06,-0.03,0.95,-3.7,-21.77,17.46,3919,3667,4095,4095
10,2,431013,0.12,-0.07,0.98,-4.42,-17.44,14.36,3921,3671,4095,4095
10,2,431025,0.13,-0.05,0.97,-4.33,-10.06,4.33,3895,3672,4095,4095
10,2,431037,0.1,-0.05,0.99,-4.28,-3.27,-1.2,3922,3648,4095,4095
10,2,431049,0.03,-0.05,0.97,-2.97,1.94,-3.82,3914,3664,4095,4095
10,2,431061,-0.04,-0.08,0.96,0.44,5.65,-6.77,3918,3671,4095,4095
10,2,431073,-0.08,-0.08,0.98,4.38,5.17,-7.52,3927,3669,4095,4095
10,2,431085,-0.11,-0.08,0.97,7.72,1.92,-5.9,3923,3677,4095,4095
10,2,431097,-0.1,-0.03,0.96,8.27,-2.89,-4.37,3920,3667,4095,4095
10,2,431109,-0.08,0.01,0.95,6.24,-6.28,-4.43,3874,3675,4095,4095
10,2,431121,-0.05,0.02,0.95,2.65,-8.49,-3.59,3920,3669,4095,4095
10,2,431133,0.02,0.03,0.94,-0.91,-8.73,-0.04,3922,3671,4095,4095
10,2,431145,0.05,0.05,0.94,-3.33,-4.84,-1.39,3911,3668,4095,4095
10,2,431157,0.04,0.02,0.93,-4.98,-0.63,-0.81,3919,3668,4095,4095
10,2,431169,0.02,0.01,0.9,-6.68,-2.02,5.43,3915,3664,4095,4095
10,2,431181,0.07,-0.02,0.95,-4.51,0.53,5.67,3907,3671,4095,4095
10,2,431193,0.07,-0.01,0.95,-3.82,1.91,3.25,3930,3667,4095,4095
10,2,431205,0.06,-0.02,0.94,-1.96,2.64,1.09,3939,3666,4095,4095
10,2,431217,0.06,-0.02,0.95,-1.91,1.63,-0.16,3926,3680,4095,4095
10,2,431229,0.02,-0.02,0.96,-0.54,1.71,-2.54,3919,3667,4095,4095
10,2,431241,-0.01,-0.03,0.96,1.26,1.48,-4.33,3937,3666,4095,4095
10,2,431253,-0.03,-0.03,0.95,2.45,0.55,-2.98,3869,3664,4095,4095
10,2,431265,-0.03,-0.01,0.96,2.07,-0.47,-2.56,3905,3671,4095,4095
10,2,431277,-0.03,-0.01,0.95,1.44,-0.86,-1.96,3917,3673,4095,4095
10,2,431289,-0.03,-0.01,0.96,0.48,-0.93,-0.95,3904,3674,4095,4095
10,2,431301,-0.01,-0.01,0.97,0.71,-2.02,-0.31,3927,3675,4095,4095
10,2,431313,0.01,-0.01,0.98,0.9,-4.49,-1.5,3926,3673,4095,4095
10,2,431325,0.03,0,0.97,1.61,-4.78,-2.63,3931,3667,4095,4095
10,2,431337,0.03,0,0.97,2.03,-3.34,-2.59,3922,3663,4095,4095
10,2,431349,0.01,0.02,0.96,1.14,-2.55,-1.79,3925,3667,4095,4095
10,2,431361,-0.02,0.01,0.95,-0.34,-2.55,-0.52,3929,3664,4095,4095
10,2,431373,-0.02,0.02,0.94,-1.38,-1.99,2.16,3922,3671,4095,4095
10,2,431385,-0.05,0.01,0.93,-3.26,-2.32,4.24,3904,3664,4095,4095
10,2,431397,-0.03,-0.01,0.94,-4.92,-3.24,7,3910,3671,4095,4095
10,2,431409,0,-0.01,0.94,-6.23,-4.66,7.44,3918,3675,4095,4095
10,2,431421,0.02,-0.02,0.95,-5.68,-3.79,6.56,3920,3667,4095,4095
10,2,431433,0.02,-0.04,0.94,-4.98,-2.9,5.11,3894,3674,4095,4095
10,2,431445,0.02,-0.05,0.94,-3.49,-2.92,4.04,3921,3664,4095,4095
10,2,431457,0.03,-0.04,0.94,-2.07,-2.17,1.46,3911,3664,4095,4095
10,2,431469,0.03,-0.04,0.96,-0.54,-0.18,-0.77,3902,3667,4095,4095
10,2,431481,0.02,-0.02,0.94,0.35,2.41,-2.34,3911,3671,4095,4095
10,2,431493,0.01,-0.02,0.94,-0.05,3.65,-3.15,3913,3667,4095,4095
10,2,431505,0,-0.02,0.94,-0.75,3.28,-2.97,3916,3669,4095,4095
10,2,431517,0,-0.02,0.94,-0.77,3.02,-2.94,3904,3671,4095,4095
10,2,431529,-0.01,-0.01,0.93,-1.26,1.3,-2.42,3919,3667,4095,4095
10,2,431541,0.01,-0.02,0.95,-0.91,0.38,-2.49,3915,3664,4095,4095
10,2,431553,0.03,-0.03,0.95,-0.57,0.23,-3.17,3920,3667,4095,4095
10,2,431565,0.02,-0.02,0.97,0.16,0.7,-4.07,3917,3668,4095,4095
10,2,431577,0,0,0.95,0.33,2.44,-3.99,3940,3668,4095,4095
10,2,431589,-0.02,0,0.95,-0.77,1.83,-3.06,3926,3669,4095,4095
10,2,431601,-0.02,0,0.95,-2.31,0.35,-2.08,3906,3665,4095,4095
10,2,431613,-0.02,0,0.95,-3.03,0.47,-0.89,3923,3667,4095,4095
10,2,431625,-0.01,0,0.95,-3.12,0.37,0.51,3915,3674,4095,4095
10,2,431637,0,-0.01,0.95,-3.18,0.61,1.6,3920,3671,4095,4095
10,2,431649,0,-0.01,0.94,-3.76,-0.32,2.1,3925,3669,4095,4095
10,2,431661,0.01,-0.01,0.94,-3.29,-0.06,2.07,3917,3667,4095,4095
10,2,431673,0.01,-0.02,0.94,-3.39,0.24,1.99,3917,3665,4095,4095
10,2,431685,0.01,-0.02,0.95,-3.46,0.61,1.29,3889,3664,4095,4095
10,2,431697,0.01,-0.01,0.95,-4.25,0.59,0.35,3924,3673,4095,4095
10,2,431709,0.01,-0.01,0.94,-4.91,0.61,0.25,3942,3667,4095,4095
10,2,431721,0.01,-0.02,0.95,-5.24,0.84,-0.1,3919,3666,4095,4095
10,2,431733,0.01,-0.02,0.95,-4.56,1.34,-0.26,3875,3668,4095,4095
10,2,431745,0.02,-0.03,0.96,-3.41,1.86,-1.43,3907,3665,4095,4095
10,2,431757,0.02,0.02,0.97,-4.51,1.77,-5.38,3931,3653,4095,4095
10,2,431769,-0.04,-0.06,0.95,-2.75,1.63,-5.14,3920,3667,4095,4095
10,2,431781,-0.01,-0.06,0.95,-3.14,-2.95,0.16,3881,3664,4095,4095
10,2,431793,0.01,-0.01,0.97,-0.36,0.46,-2.4,3917,3671,4095,4095
10,2,431805,0.02,-0.02,0.94,1.23,1.13,-1.76,3931,3667,4095,4095
10,2,431817,0,-0.02,0.95,0.45,-0.31,1.12,3927,3667,4095,4095
10,2,431829,0.02,0.02,0.94,-0.95,0.3,0.32,3913,3669,4095,4095
10,2,431841,0,-0.01,0.95,-1.58,0.7,-0.57,3927,3670,4095,4095
10,2,431853,-0.01,-0.01,0.95,-1.27,-1.09,1.08,3926,3670,4095,4095
10,2,431865,0.01,0,0.96,-1.93,-0.96,1.17,3888,3669,4095,4095
10,2,431877,0.01,-0.01,0.95,-1.44,-0.43,0.57,3919,3682,4095,4095
10,2,431889,0,-0.02,0.95,-2.2,-1.3,1.6,3920,3667,4095,4095
10,2,431901,0.01,-0.01,0.95,-2.65,-1.56,1.43,3923,3665,4095,4095
10,2,431913,0.02,-0.01,0.95,-2.34,0.06,0.01,3930,3667,4095,4095
10,2,431925,0.01,-0.02,0.95,-2.4,1.25,-0.1,3906,3670,4095,4095
10,2,431937,-0.01,-0.03,0.94,-1.9,1.39,-0.08,3914,3670,4095,4095
10,2,431949,0,-0.02,0.94,-1.49,0.43,-0.31,3920,3678,4095,4095
10,2,431961,0.01,-0.02,0.95,-0.78,0.04,-1.14,3915,3670,4095,4095
10,2,431973,0.01,-0.01,0.94,-0.88,-0.15,-1.27,3919,3671,4095,4095
10,2,431985,0.02,-0.01,0.95,-1.35,0.27,-2.4,3939,3665,4095,4095
10,2,431997,0.02,-0.01,0.95,-1.55,0.85,-2.85,3943,3666,4095,4095
10,2,432009,0.02,-0.01,0.95,-1.94,1.33,-3.64,3931,3670,4095,4095
10,2,432021,0.02,-0.02,0.94,-2.13,1.69,-3.73,3921,3675,4095,4095
10,2,432033,0,-0.02,0.95,-2.19,2.17,-3.59,3937,3664,4095,4095
10,2,432045,-0.01,-0.03,0.96,-1.07,2.21,-3.12,3920,3671,4095,4095
10,2,432057,-0.02,-0.02,0.96,-0.16,1.27,-3.2,3919,3667,4095,4095
10,2,432069,-0.01,-0.01,0.96,-0.04,-0.06,-3.44,3921,3669,4095,4095
10,2,432081,0,-0.01,0.95,0.13,-0.92,-3.38,3919,3672,4095,4095
10,2,432093,0.01,-0.01,0.95,0.33,-1.27,-3.41,3920,3669,4095,4095
10,2,432105,0.01,0,0.95,0.42,-1.19,-2.81,3921,3663,4095,4095
,,,,,,,,,,,,
1,3,494409,-0.01,0.07,0.9,-1,3.49,-9.46,4016,3683,3841,4095
1,3,494422,0,0.08,0.93,0.01,5.65,-5.52,4052,3670,3839,4095
1,3,494433,0,0.11,0.91,-0.78,6.24,-2.91,4022,3655,3839,4095
1,3,494445,0.03,0.12,0.95,-2.05,5.94,-2.85,3991,3687,3840,4095
1,3,494457,0.02,0.11,0.97,-3.68,4.35,-2.94,4011,3690,3841,4095
1,3,494469,0.01,0.09,0.99,-2.23,3.83,-3.15,4027,3689,3838,4095
1,3,494481,0.02,0.08,1,0.28,3.68,-3.94,4007,3681,3833,4095
1,3,494493,0.01,0.1,0.98,1.69,2.95,-4.57,4012,3680,3835,4095
1,3,494505,0.02,0.11,0.96,1.81,1.37,-3.67,4017,3681,3835,4095
1,3,494517,0.02,0.12,0.96,0.86,-0.05,-3.24,4018,3693,3835,4095
1,3,494529,0.03,0.11,0.97,-0.46,-1.56,-2.69,4011,3683,3839,4095
1,3,494541,0.03,0.12,0.97,-0.25,-0.8,-3.14,4029,3686,3835,4095
1,3,494553,0,0.12,0.96,-0.83,1.02,-2.31,4007,3691,3838,4095
1,3,494565,0,0.1,0.97,-0.25,1.19,-1.06,4021,3680,3863,4095
1,3,494577,-0.02,0.11,0.97,0.09,1.27,2.07,4011,3679,3841,4095
1,3,494589,-0.02,0.12,0.96,0.5,-0.63,4.54,4016,3682,3837,4095
1,3,494601,0.01,0.13,0.96,-0.43,-2.2,4.88,4017,3682,3839,4095
1,3,494613,0.02,0.12,0.96,-2.25,-3.25,4.86,4002,3647,3841,4095
1,3,494625,0.04,0.11,0.95,-4.71,-3.97,5.38,4040,3664,3839,4095
1,3,494637,0.05,0.09,0.96,-4.6,-2.49,6.59,4012,3663,3839,4095
1,3,494649,0.06,0.1,0.95,-4.22,1.02,3.61,4027,3663,3838,4095
1,3,494661,0.04,0.07,0.97,-3.15,3.72,2.59,4024,3665,3838,4095
1,3,494673,0.01,0.07,0.95,-2.86,4.49,2.97,4039,3666,3837,4095
1,3,494685,0,0.09,0.97,-0.86,6.01,1.67,4017,3671,3837,4095
1,3,494697,-0.01,0.08,0.96,-0.95,4.73,1.31,4013,3673,3838,4095
1,3,494709,0,0.1,0.95,-1.35,2.41,1.28,4017,3674,3841,4095
1,3,494721,0.02,0.09,0.97,-2.71,1.04,-0.26,4007,3664,3847,4095
1,3,494733,0.05,0.08,0.97,-1.41,1.97,-0.85,4023,3675,3831,4095
1,3,494745,0.06,0.09,0.99,-0.45,3.3,-2.74,4019,3683,3840,4095
1,3,494757,0.07,0.1,0.97,-0.33,3.8,-4.77,4049,3671,3841,4095
1,3,494769,0.06,0.11,1.01,0.15,6.59,-4.94,4005,3670,3839,4095
1,3,494781,0.02,0.12,0.95,-0.48,6.88,-5.67,4022,3666,3826,4095
1,3,494793,-0.02,0.11,0.96,-1.5,6.96,-3.65,4011,3666,3843,4095
1,3,494805,-0.01,0.13,0.95,-4.08,5.19,-1.43,4031,3666,3842,4095
1,3,494817,0.01,0.12,0.98,-7.09,3.59,-1.14,4016,3664,3837,4095
1,3,494829,0.02,0.08,1.01,-7.39,2.44,-1.43,4016,3663,3846,4095
1,3,494841,0.04,0.07,1.02,-5.76,3.01,-2.63,3995,3665,3840,4095
1,3,494853,0.03,0.07,1.01,-3.72,4.5,-4.91,3991,3659,3834,4095
1,3,494865,0.01,0.08,1.01,-1.85,4.52,-6.52,4017,3662,3840,4095
1,3,494877,0,0.09,1.01,-0.81,2.62,-8.42,4015,3672,3835,4095
1,3,494889,-0.01,0.1,1,-0.02,-0.73,-10.54,4022,3673,3839,4095
1,3,494901,-0.02,0.1,1.02,0.47,-4.12,-12.43,4010,3679,3834,4095
1,3,494913,-0.02,0.09,1,2.13,-7.34,-11.76,4048,3681,3838,4095
1,3,494925,-0.01,0.11,0.95,1.52,-9.82,-10.92,3984,3688,3843,4095
1,3,494937,-0.01,0.12,0.98,1.89,-10.06,-9.96,4049,3690,3837,4095
1,3,494949,0.02,0.11,0.97,3,-11.3,-5.15,4027,3678,3852,4095
1,3,494961,0.03,0.14,0.94,3.34,-8.43,-1.93,3988,3674,3838,4095
1,3,494973,0.02,0.15,0.9,1.23,-6.92,-1.72,4021,3684,3843,4095
1,3,494985,0.01,0.15,0.93,-1.1,-8.83,3.22,4027,3675,3839,4095
1,3,494997,0.03,0.16,0.91,-4.46,-10.18,6.82,3998,3680,3840,4095
1,3,495009,0.04,0.14,0.91,-6.16,-9.12,6.68,4035,3679,3839,4095
1,3,495021,0.07,0.12,0.92,-7.52,-7.99,6.61,4026,3680,3839,4095
1,3,495033,0.08,0.09,0.94,-7.91,-5.31,6.25,4042,3678,3839,4095
1,3,495045,0.09,0.08,0.94,-6.31,-1.33,3.29,4013,3678,3841,4095
1,3,495057,0.08,0.07,0.95,-2.59,5.71,-0.69,4029,3685,3835,4095
1,3,495069,0.05,0.07,0.95,-0.31,9.68,-3.29,3991,3679,3840,4095
1,3,495081,0.03,0.09,0.96,0.41,11.31,-4.89,4042,3663,3837,4095
1,3,495093,0.01,0.11,0.95,-0.48,11.01,-5.26,4027,3661,3832,4095
1,3,495105,0,0.12,0.96,-1.17,10.18,-4.1,4009,3645,3837,4095
1,3,495117,-0.01,0.11,0.94,-3.38,5.39,-4.17,3969,3647,3839,4095
1,3,495129,0,0.1,0.98,-3.38,6.41,-3.14,4015,3644,3831,4095
1,3,495141,0.02,0.11,0.98,-2.75,5.86,-3.79,4015,3646,3838,4095
1,3,495153,0.01,0.09,0.99,-1.24,6.21,-4.25,4027,3670,3839,4095
1,3,495165,0.05,0.11,1,0.38,7.66,-8.81,4018,3661,3836,4095
1,3,495177,0.03,0.11,1,2.1,8.66,-11.01,4021,3646,3840,4095
1,3,495189,-0.01,0.1,1.01,2.65,6.73,-9.26,4016,3681,3842,4095
1,3,495201,-0.03,0.11,1,3.73,5.36,-7.84,4029,3687,3835,4095
1,3,495213,-0.05,0.12,0.99,4.44,4.17,-5.33,4014,3683,3839,4095
1,3,495225,-0.04,0.14,0.98,3.25,1.78,-1.56,4018,3690,3833,4095
1,3,495237,0,0.15,1,0.82,0,1.28,4013,3687,3835,4095
1,3,495249,0.03,0.14,1.01,-0.56,-1.67,1.87,4045,3683,3839,4095
1,3,495261,0.04,0.12,1.02,0.32,-3.63,0.64,4017,3689,3835,4095
1,3,495273,0.04,0.11,1.02,2.25,-4.28,-0.4,4014,3683,3839,4095
1,3,495285,0.03,0.11,1.02,4.1,-5.34,-1.21,4019,3667,3843,4095
1,3,495297,0.02,0.13,0.98,3.75,-5.7,-1.24,4016,3682,3835,4095
1,3,495309,-0.01,0.14,0.99,1.99,-5.91,-3.15,4008,3695,3836,4095
1,3,495321,-0.03,0.12,0.97,0.01,-8.05,-1.91,4032,3680,3841,4095
1,3,495333,-0.02,0.12,0.96,-0.95,-8.75,-0.26,4025,3674,3838,4095
1,3,495345,0,0.12,0.98,-0.86,-9.21,-0.52,4025,3682,3833,4095
1,3,495357,0.02,0.13,0.94,-0.86,-9.53,-1.32,3997,3681,3842,4095
1,3,495369,0.03,0.11,0.95,-0.51,-10.86,-3.73,4018,3682,3830,4095
1,3,495381,0.04,0.09,0.93,1.26,-12.8,-6.01,4019,3667,3839,4095
1,3,495393,0.08,0.11,0.95,3.05,-11.45,-7.04,4014,3684,3834,4095
1,3,495405,0.08,0.14,0.92,4.74,-9.09,-9.36,4011,3683,3841,4095
1,3,495417,0.09,0.16,0.9,4.47,-6.28,-7.61,4014,3683,3837,4095
1,3,495429,0.09,0.18,0.92,3.14,-3.53,-7.9,4011,3679,3835,4095
1,3,495441,0.06,0.17,0.92,0.65,-2.28,-7.73,4018,3679,3838,4095
1,3,495453,0.02,0.14,0.93,-0.43,-1.1,-4.36,4022,3675,3831,4095
1,3,495465,0,0.14,0.97,-1.1,1.05,-1.3,4017,3680,3841,4095
1,3,495477,0.01,0.13,0.96,-0.88,2.46,1.06,4027,3681,3844,4095
1,3,495489,-0.01,0.13,0.97,0.12,2.76,2.45,3999,3671,3838,4095
1,3,495501,-0.01,0.13,0.98,-0.31,0.55,2.38,4021,3686,3843,4095
1,3,495513,-0.01,0.14,0.97,-0.63,-2.4,1.6,4006,3681,3836,4095
1,3,495525,-0.01,0.14,0.99,-0.98,-6.29,0.1,4016,3683,3838,4095
1,3,495537,-0.01,0.13,0.97,-0.83,-9.59,-1.09,4011,3682,3838,4095
1,3,495549,0.01,0.13,0.96,-1.81,-10.18,1.52,4014,3679,3835,4095
1,3,495561,0.01,0.14,0.94,-3.1,-9.05,1.9,3983,3691,3835,4095
1,3,495573,0.02,0.15,0.94,-5.61,-7.89,2.45,4011,3682,3838,4095
1,3,495585,0.04,0.14,0.95,-8.3,-6.61,2.01,4018,3683,3839,4095
1,3,495597,0.05,0.09,0.97,-8.52,-5.54,-1.67,4029,3687,3839,4095
1,3,495609,0.04,0.07,0.99,-5.85,-3.85,-5.39,4042,3677,3839,4095
1,3,495621,0.04,0.1,0.97,-1.85,-2.15,-8.6,3965,3663,3839,4095
1,3,495633,-0.01,0.1,0.97,0.93,-1.77,-11.7,4048,3678,3836,4095
1,3,495645,-0.02,0.1,0.96,3.28,-0.6,-9.82,4038,3678,3852,4095
1,3,495657,-0.01,0.14,0.91,4.77,-0.92,-8.11,4022,3688,3831,4095
1,3,495669,0.02,0.19,0.94,4.32,0.91,-8.26,4035,3683,3830,4095
1,3,495681,0.04,0.22,0.91,1.08,-0.34,-5,4015,3678,3839,4095
1,3,495693,0.03,0.21,0.9,-4.22,-1.97,-1.35,3999,3679,3836,4095
1,3,495705,0.05,0.17,0.93,-6.36,0.66,1.25,4027,3678,3844,4095
1,3,495717,0.04,0.15,0.91,-7.26,2.23,5.03,4009,3679,3839,4095
1,3,495729,0.07,0.15,0.91,-6.25,4.17,7,4023,3683,3838,4095
1,3,495741,0.07,0.14,0.94,-6.16,4.35,7.43,4015,3684,3835,4095
1,3,495753,0.06,0.15,0.93,-4.74,4.81,5.67,4013,3674,3836,4095
1,3,495765,0.05,0.14,0.95,-4.71,3.86,2.44,4021,3687,3836,4095
1,3,495777,0.02,0.12,0.94,-3.99,2.08,1.74,4048,3683,3839,4095
1,3,495789,0.02,0.11,0.95,-2.4,0.18,0.86,4016,3683,3847,4095
1,3,495801,0.03,0.13,0.96,-1.35,-0.76,-0.66,3993,3687,3836,4095
1,3,495813,0.03,0.13,0.95,0.22,-1.82,-0.56,4026,3680,3849,4095
1,3,495825,0.03,0.15,0.93,1.6,-4.31,-0.3,4029,3686,3835,4095
1,3,495837,0.03,0.15,0.94,1.87,-3.22,-0.26,3975,3683,3850,4095
1,3,495849,0.05,0.15,0.91,0.22,-3.34,0.9,3975,3683,3831,4095
1,3,495861,0.02,0.12,0.92,-0.2,-3.24,3.51,4032,3683,3839,4095
1,3,495873,0.06,0.14,0.95,-0.42,-0.87,3.25,4019,3680,3837,4095
1,3,495885,0.03,0.13,0.95,-0.66,0.14,1.26,4047,3661,3837,4095
1,3,495897,0.02,0.12,0.94,-0.2,-1.04,1.49,4027,3671,3838,4095
1,3,495909,0.01,0.13,0.97,0.94,0.4,1.55,4031,3676,3840,4095
1,3,495921,0,0.13,0.96,1.89,1.95,0.97,4016,3694,3840,4095
1,3,495933,-0.03,0.13,0.95,2.15,1.28,3.15,4031,3674,3839,4095
1,3,495945,-0.02,0.14,0.94,0.93,0.06,5.25,4002,3662,3839,4095
1,3,495957,-0.01,0.15,0.94,-0.37,-1.45,6.12,4016,3664,3830,4095
1,3,495969,0.01,0.14,0.95,-0.51,-1.94,6.77,4048,3685,3840,4095
1,3,495981,0.02,0.12,0.96,-0.83,-2.32,7.77,4010,3675,3839,4095
1,3,495993,0.04,0.11,0.95,0.28,-2.12,8.56,4009,3681,3839,4095
1,3,496005,0.03,0.12,0.99,2.16,1.27,8.36,3963,3681,3878,4095
1,3,496017,0.02,0.13,0.94,1.86,1.01,8.06,4022,3682,3841,4095
1,3,496029,0.01,0.13,0.94,0.44,-0.03,9.37,4031,3679,3850,4095
1,3,496041,0.02,0.14,0.94,-1.47,-0.55,9.66,3959,3682,3837,4095
1,3,496053,0.03,0.11,0.94,-3.03,0.03,8.93,4014,3682,3834,4095
1,3,496065,0.02,0.1,0.93,-3.36,0.12,8.33,4021,3683,3834,4095
1,3,496077,0.03,0.1,0.93,-4.16,0.11,7.08,4016,3684,3835,4095
1,3,496089,0.04,0.1,0.94,-4.19,1.14,5.43,4023,3687,3836,4095
1,3,496101,0.04,0.1,0.94,-4.23,2.47,2.27,4002,3683,3858,4095
1,3,496113,0.04,0.11,0.96,-3.73,1.98,-1.27,4017,3680,3835,4095
1,3,496125,0.04,0.08,0.92,-4.37,1.74,-3.32,4023,3685,3823,4095
1,3,496137,0.05,0.09,0.94,-3.62,1.4,-5.15,4019,3685,3821,4095
1,3,496149,0.06,0.08,0.94,-1.7,4.21,-5.21,3999,3678,3837,4095
1,3,496161,0.04,0.09,0.95,0.1,5.97,-4.91,4011,3683,3835,4095
1,3,496173,0.05,0.12,0.94,-0.1,6.58,-5.64,4029,3682,3842,4095
1,3,496185,0.04,0.13,0.94,-0.91,6.09,-6.39,4016,3686,3827,4095
1,3,496197,0.02,0.12,0.96,-2.08,4.29,-7,4016,3679,3843,4095
1,3,496209,0.02,0.12,0.97,-1.7,3.17,-7.2,4016,3687,3837,4095
1,3,496221,0.01,0.11,0.97,-0.57,2.96,-7,4026,3683,3839,4095
1,3,496233,-0.01,0.12,0.95,0.39,2.4,-5.97,4042,3686,3777,4095
1,3,496245,0,0.14,0.96,0.19,2.58,-4.6,4029,3690,3841,4095
1,3,496257,0.01,0.14,0.97,-0.94,2.76,-3.32,3967,3686,3839,4095
1,3,496269,0,0.13,0.94,-1.12,1.1,-0.85,4003,3690,3833,4095
1,3,496281,-0.01,0.12,0.96,-1.15,0.47,1.78,4006,3681,3840,4095
1,3,496293,-0.02,0.12,0.94,-2.6,-1.59,1.17,4005,3684,3839,4095
1,3,496305,0.01,0.11,0.97,-1.5,-2.99,1.75,4013,3682,3839,4095
1,3,496317,0.02,0.11,0.97,-0.48,-4.58,1.2,4016,3685,3839,4095
1,3,496329,0.04,0.12,0.96,0.83,-4.12,0.18,4021,3689,3826,4095
1,3,496341,0.02,0.11,0.95,0.64,-3.77,0.38,3978,3690,3838,4095
1,3,496353,0.04,0.11,0.95,1.38,-3.02,1.02,4016,3685,3831,4095
1,3,496365,0.05,0.13,0.96,1.12,-1.7,0.71,4014,3685,3834,4095
1,3,496377,0.03,0.14,0.94,0.9,-1.31,0.32,4021,3681,3839,4095
1,3,496389,0.02,0.13,0.94,-0.57,-0.66,0.19,3997,3683,3838,4095
1,3,496401,0.02,0.11,0.89,-1.91,-2.41,-0.81,4013,3680,3838,4095
1,3,496413,0.02,0.1,0.94,-1.01,-2.22,-0.05,4026,3682,3836,4095
1,3,496425,0.04,0.11,0.94,-0.08,-0.67,-1.21,4016,3679,3835,4095
2,3,541185,-0.06,-0.14,0.88,-6.86,6.26,-6.6,3917,3785,3788,4095
2,3,541197,-0.07,-0.15,0.89,-9.58,6.56,-8.54,3916,3783,3786,4095
2,3,541209,-0.06,-0.17,0.89,-10.68,5.37,-9.2,3942,3777,3785,4095
2,3,541221,-0.04,-0.17,0.91,-10.3,3.83,-12.74,3945,3782,3791,4095
2,3,541233,0,-0.18,0.89,-10.91,1.8,-16.86,3899,3774,3786,4095
2,3,541245,0.04,-0.19,0.91,-9.78,2.09,-21,3910,3783,3784,4095
2,3,541257,0.06,-0.19,0.93,-6.65,6.69,-28.71,3893,3789,3791,4095
2,3,541269,0.02,-0.2,0.94,-1.97,12.2,-34.63,3911,3783,3786,4095
2,3,541281,-0.02,-0.19,0.92,2.42,11.53,-35.55,3918,3783,3792,4095
2,3,541293,-0.06,-0.16,0.87,5.14,9.66,-32.88,3914,3789,3785,4095
2,3,541305,-0.02,-0.11,0.87,6.9,10.93,-29.24,3914,3792,3791,4095
2,3,541317,0.01,-0.05,0.88,4.51,15.43,-29.82,3909,3786,3813,4095
2,3,541329,0,-0.04,0.91,1.05,17.33,-28.48,3937,3807,3792,4095
2,3,541341,-0.05,-0.04,0.88,-2.28,18.35,-23.87,3909,3781,3787,4095
2,3,541353,-0.05,-0.04,0.91,-5.55,16,-21.14,3909,3783,3792,4095
2,3,541365,-0.08,-0.05,0.91,-5.1,12.15,-17.68,3889,3782,3792,4095
2,3,541377,-0.07,-0.06,0.97,-4.3,7.8,-12.4,3930,3788,3789,4095
2,3,541389,-0.04,-0.05,0.94,-2.13,4.95,-7.93,3859,3790,3792,4095
2,3,541401,-0.03,-0.05,0.95,-1.46,4.72,-3.53,3905,3777,3795,4095
2,3,541413,-0.01,-0.03,0.94,-3.03,4.99,-0.3,3925,3790,3791,4095
2,3,541425,-0.02,-0.04,0.94,-5.17,4.32,3.14,3915,3782,3791,4095
2,3,541437,-0.02,-0.04,0.93,-7.21,3.3,6.96,3953,3785,3780,4095
2,3,541449,-0.01,-0.07,0.95,-8.31,2.32,9.72,3920,3776,3792,4095
2,3,541461,0.01,-0.05,0.95,-8.37,3.27,7.99,3874,3783,3803,4095
2,3,541473,-0.02,-0.09,0.95,-8.68,2.12,4.71,3911,3786,3793,4095
2,3,541485,-0.01,-0.09,0.94,-9.62,-0.73,2.73,3916,3779,3790,4095
2,3,541497,0.01,-0.11,0.96,-8.08,0.17,-0.37,3931,3785,3792,4095
2,3,541509,0,-0.12,0.95,-5.1,5.69,-3.87,3913,3777,3792,4095
2,3,541521,-0.04,-0.13,0.93,-2.11,9.98,-4.26,3902,3787,3794,4095
2,3,541533,-0.06,-0.13,0.91,-0.1,10.18,-3.47,3920,3787,3776,4095
2,3,541545,-0.03,-0.08,0.91,-0.04,10.38,-3.06,3946,3787,3789,4095
2,3,541557,-0.04,-0.06,0.93,0.09,9.3,-4.51,3918,3786,3786,4095
2,3,541569,-0.04,-0.07,0.94,0.39,6.75,-4.04,3924,3786,3787,4095
2,3,541581,0.01,-0.05,0.94,0.22,3.02,-4.81,3910,3786,3785,4095
2,3,541593,0.03,-0.07,0.96,-0.72,-3.01,-7.82,3920,3777,3791,4095
2,3,541605,0.08,-0.07,0.95,-1.33,-5.51,-10.11,3909,3791,3793,4095
2,3,541617,0.09,-0.07,0.94,-0.94,0.03,-11.55,3894,3784,3791,4095
2,3,541629,0.06,-0.08,0.92,-1.56,9.17,-11.91,3911,3785,3791,4095
2,3,541641,0,-0.08,0.95,-0.88,19.54,-7.75,3911,3785,3785,4095
2,3,541653,-0.12,-0.11,0.95,-0.81,22.76,-1.59,3898,3787,3792,4095
2,3,541665,-0.1,-0.09,0.94,0.25,20.72,4.51,3909,3777,3792,4095
2,3,541677,-0.06,-0.05,0.99,1.95,12.96,6.25,3923,3782,3787,4095
2,3,541689,-0.01,-0.05,1.02,2.09,3.72,2.33,3911,3782,3783,4095
2,3,541701,0.02,-0.06,1.01,2.67,-1.71,-3.15,3920,3785,3775,4095
2,3,541713,-0.01,-0.08,0.99,1.75,-6.32,-3.44,3909,3779,3791,4095
2,3,541725,0.01,-0.08,0.98,3.15,-5.22,-1.7,3920,3778,3790,4095
2,3,541737,0,-0.08,0.98,5.11,-0.63,-1.43,3913,3785,3791,4095
2,3,541749,-0.01,-0.05,0.98,6.5,1.82,-1.43,3937,3787,3791,4095
2,3,541761,-0.07,-0.03,0.93,4.12,1.39,1.84,3909,3786,3789,4095
2,3,541773,-0.08,-0.01,0.93,-0.23,-1.42,5.28,3891,3789,3787,4095
2,3,541785,-0.06,-0.03,0.95,-4.31,-6.87,7.2,3915,3787,3789,4095
2,3,541797,0,-0.07,0.98,-5.21,-11.62,6.3,3911,3781,3775,4095
2,3,541809,0.02,-0.08,0.98,-3.76,-15.73,3.52,3914,3779,3792,4095
2,3,541821,0.07,-0.1,0.99,-1.35,-14.8,-0.74,3945,3786,3789,4095
2,3,541833,0.04,-0.08,0.94,0.83,-9.01,-3.43,3921,3781,3790,4095
2,3,541845,0.02,-0.05,0.91,-0.45,-6.25,-3.56,3899,3787,3791,4095
2,3,541857,-0.06,-0.07,0.9,-2.28,-4.37,1.54,3910,3783,3783,4095
2,3,541869,0,-0.08,0.92,-6.17,-10.14,3.81,3920,3787,3793,4095
2,3,541881,0.03,-0.09,0.93,-6.2,-11.6,-0.51,3929,3782,3763,4095
2,3,541893,0.06,-0.11,0.94,-6.2,-12.76,-7.52,3914,3783,3785,4095
2,3,541905,0.07,-0.13,0.96,-0.66,-7.68,-13.97,3910,3783,3786,4095
2,3,541917,0.02,-0.11,0.94,4.22,-0.9,-18.77,3921,3781,3791,4095
2,3,541929,-0.07,-0.08,0.92,6.16,0.72,-20.39,3898,3787,3792,4095
2,3,541941,-0.09,-0.07,0.92,4.33,-5.28,-13.49,3707,3786,3793,4095
2,3,541953,-0.06,-0.02,0.93,1.75,-10.7,-9.93,3871,3785,3791,4095
2,3,541965,-0.03,-0.03,0.95,-0.74,-14.26,-9.64,3903,3792,3787,4095
2,3,541977,0.01,-0.05,0.97,-2.19,-16.96,-9.96,3888,3781,3765,4095
